Date;Timestamp;DeviceOrientation;AccelerationX;AccelerationY;AccelerationZ;Label
2024-10-12 23:19:31;1728764371.910974;faceUp;0.184356689453125;-0.4093780517578125;-0.917572021484375;
2024-10-12 23:19:31;1728764371.912359;faceUp;0.226226806640625;-0.415802001953125;-0.9393463134765625;
2024-10-12 23:19:31;1728764371.9433122;faceUp;0.2803955078125;-0.4767913818359375;-0.968536376953125;
2024-10-12 23:19:31;1728764371.994189;faceUp;0.205322265625;-0.4516754150390625;-0.9758758544921875;
2024-10-12 23:19:31;1728764372.046329;faceUp;0.295562744140625;-0.3825225830078125;-1.0340576171875;
2024-10-12 23:19:31;1728764372.0915089;faceUp;0.2973785400390625;-0.2534332275390625;-0.9438629150390625;
2024-10-12 23:19:31;1728764372.150306;faceUp;0.390350341796875;-0.1769561767578125;-1.1130523681640625;
2024-10-12 23:19:31;1728764372.194911;faceUp;0.3583984375;-0.25921630859375;-1.234649658203125;
2024-10-12 23:19:31;1728764372.249593;faceUp;0.0780029296875;-0.201385498046875;-1.2863616943359375;
2024-10-12 23:19:31;1728764372.292872;faceUp;-0.05718994140625;-0.0637664794921875;-0.8582916259765625;
2024-10-12 23:19:31;1728764372.348614;faceUp;-0.349822998046875;-0.0441741943359375;-0.57708740234375;
2024-10-12 23:19:31;1728764372.3988981;faceUp;-0.3139190673828125;-0.089569091796875;-0.5938873291015625;
2024-10-12 23:19:31;1728764372.4477758;faceUp;-0.3234100341796875;-0.2371826171875;-1.0241546630859375;
2024-10-12 23:19:31;1728764372.4989681;faceUp;-0.248992919921875;-0.24505615234375;-1.5301361083984375;
2024-10-12 23:19:31;1728764372.547739;faceUp;0.029937744140625;-0.329620361328125;-1.4255828857421875;
2024-10-12 23:19:31;1728764372.598932;faceUp;0.408782958984375;-0.600555419921875;-1.04473876953125;
2024-10-12 23:19:31;1728764372.648401;faceUp;0.54437255859375;-0.6486358642578125;-0.776885986328125;
2024-10-12 23:19:31;1728764372.69857;faceUp;0.257171630859375;-0.4742889404296875;-0.6836395263671875;
2024-10-12 23:19:31;1728764372.7401729;faceUp;0.397491455078125;-0.425140380859375;-0.7350311279296875;
2024-10-12 23:19:31;1728764372.796365;faceUp;0.1432647705078125;-0.3162078857421875;-1.198516845703125;
2024-10-12 23:19:31;1728764372.847066;faceUp;0.0362701416015625;-0.2388763427734375;-1.365478515625;
2024-10-12 23:19:31;1728764372.898336;faceUp;0.1215057373046875;-0.2313232421875;-1.1308135986328125;
2024-10-12 23:19:31;1728764372.9491801;faceUp;0.0841522216796875;-0.1039581298828125;-1.0885162353515625;
2024-10-12 23:19:31;1728764372.997735;faceUp;-0.1151275634765625;0.021331787109375;-0.6875152587890625;
2024-10-12 23:19:31;1728764373.047511;faceUp;-0.0834503173828125;-0.010223388671875;-0.486724853515625;
2024-10-12 23:19:31;1728764373.098665;faceUp;0.1776580810546875;-0.3314971923828125;-0.3847503662109375;
2024-10-12 23:19:31;1728764373.148713;faceUp;0.4000396728515625;-0.57928466796875;-1.3634185791015625;
2024-10-12 23:19:31;1728764373.194779;faceUp;0.0799713134765625;-0.4079742431640625;-1.142303466796875;
2024-10-12 23:19:31;1728764373.244642;faceUp;0.2509613037109375;-0.753509521484375;-0.95794677734375;
2024-10-12 23:19:31;1728764373.2895179;faceUp;0.300750732421875;-0.522003173828125;-0.7299346923828125;
2024-10-12 23:19:31;1728764373.346901;faceUp;0.0275115966796875;-0.39923095703125;-0.4524078369140625;
2024-10-12 23:19:31;1728764373.394413;faceUp;0.30810546875;-0.46002197265625;-0.6533050537109375;
2024-10-12 23:19:31;1728764373.446392;faceUp;0.3728790283203125;-0.55755615234375;-1.021728515625;
2024-10-12 23:19:31;1728764373.497805;faceUp;0.3989105224609375;-0.555267333984375;-1.3927764892578125;
2024-10-12 23:19:31;1728764373.545878;faceUp;0.16778564453125;-0.3394775390625;-1.360443115234375;
2024-10-12 23:19:31;1728764373.5964599;faceUp;0.17718505859375;-0.2403106689453125;-0.9903411865234375;
2024-10-12 23:19:31;1728764373.638161;faceUp;-0.037567138671875;-0.0176849365234375;-0.6239471435546875;
2024-10-12 23:19:31;1728764373.696908;faceUp;-0.226837158203125;-0.060638427734375;-0.2371673583984375;
2024-10-12 23:19:31;1728764373.747015;faceUp;-0.141204833984375;-0.280364990234375;-0.670257568359375;
2024-10-12 23:19:31;1728764373.794742;faceUp;0.03314208984375;-0.5234375;-1.1264801025390625;
2024-10-12 23:19:31;1728764373.845695;faceUp;0.048309326171875;-0.3740386962890625;-1.4999237060546875;
2024-10-12 23:19:31;1728764373.893938;faceUp;-0.0587921142578125;-0.4423828125;-1.3319091796875;
2024-10-12 23:19:31;1728764373.9454432;faceUp;0.2784576416015625;-0.5214996337890625;-0.9359588623046875;
2024-10-12 23:19:31;1728764373.987508;faceUp;0.3682403564453125;-0.4808807373046875;-0.529541015625;
2024-10-12 23:19:31;1728764374.044137;faceUp;0.553985595703125;-0.38909912109375;-0.569854736328125;
2024-10-12 23:19:31;1728764374.088625;faceUp;0.4341888427734375;-0.4571075439453125;-1.20904541015625;
2024-10-12 23:19:31;1728764374.137793;faceUp;0.348541259765625;-0.3643798828125;-1.3855133056640625;
2024-10-12 23:19:31;1728764374.18729;faceUp;0.120147705078125;-0.3178253173828125;-1.41229248046875;
2024-10-12 23:19:31;1728764374.238425;faceUp;-0.1247100830078125;-0.0388336181640625;-1.1670379638671875;
2024-10-12 23:19:31;1728764374.288079;faceUp;-0.23040771484375;0.020294189453125;-0.650238037109375;
2024-10-12 23:19:31;1728764374.3381839;faceUp;-0.265899658203125;-0.014373779296875;-0.440155029296875;
2024-10-12 23:19:31;1728764374.3879662;faceUp;-0.210174560546875;-0.127777099609375;-0.5793609619140625;
2024-10-12 23:19:31;1728764374.437871;faceUp;-0.0113067626953125;-0.2421112060546875;-1.1290740966796875;
2024-10-12 23:19:31;1728764374.487663;faceUp;-0.1059722900390625;-0.2828826904296875;-1.41064453125;
2024-10-12 23:19:31;1728764374.5377312;faceUp;0.2108001708984375;-0.5550079345703125;-1.3029327392578125;
2024-10-12 23:19:31;1728764374.5876498;faceUp;0.454315185546875;-0.6741180419921875;-1.0167999267578125;
2024-10-12 23:19:31;1728764374.637518;faceUp;0.56463623046875;-0.4951171875;-0.830108642578125;
2024-10-12 23:19:31;1728764374.6876578;faceUp;0.274078369140625;-0.154449462890625;-0.8638916015625;
2024-10-12 23:19:31;1728764374.737649;faceUp;0.157928466796875;-0.178741455078125;-1.2402801513671875;
2024-10-12 23:19:31;1728764374.7925858;faceUp;-0.0076904296875;-0.1280670166015625;-1.4587554931640625;
2024-10-12 23:19:31;1728764374.837044;faceUp;0.0340576171875;-0.2554168701171875;-1.2943267822265625;
2024-10-12 23:19:31;1728764374.887557;faceUp;0.072662353515625;-0.1517791748046875;-1.192535400390625;
2024-10-12 23:19:31;1728764374.938;faceUp;0.1459503173828125;0.09588623046875;-0.7841339111328125;
2024-10-12 23:19:31;1728764374.987545;faceUp;0.0767974853515625;0.040618896484375;-0.482208251953125;
2024-10-12 23:19:31;1728764375.0374231;faceUp;-0.0656890869140625;-0.1032867431640625;-0.6978759765625;
2024-10-12 23:19:31;1728764375.087544;faceUp;0.0393218994140625;-0.20452880859375;-1.189544677734375;
2024-10-12 23:19:31;1728764375.137096;faceUp;-0.005584716796875;-0.2524261474609375;-1.2596435546875;
2024-10-12 23:19:31;1728764375.187592;faceUp;0.1578521728515625;-0.4886627197265625;-1.2195587158203125;
2024-10-12 23:19:31;1728764375.23707;faceUp;0.3476409912109375;-0.5424346923828125;-1.0341949462890625;
2024-10-12 23:19:31;1728764375.2875528;faceUp;0.3220062255859375;-0.5296630859375;-0.7337493896484375;
2024-10-12 23:19:31;1728764375.337537;faceUp;0.40423583984375;-0.4069976806640625;-0.5722503662109375;
2024-10-12 23:19:31;1728764375.38735;faceUp;0.2146453857421875;-0.2698516845703125;-0.6270904541015625;
2024-10-12 23:19:31;1728764375.437217;faceUp;0.37060546875;-0.4048004150390625;-1.0959320068359375;
2024-10-12 23:19:31;1728764375.48716;faceUp;0.1777191162109375;-0.372283935546875;-1.2812652587890625;
2024-10-12 23:19:31;1728764375.537277;faceUp;0.0867767333984375;-0.2674713134765625;-1.44818115234375;
2024-10-12 23:19:31;1728764375.587594;faceUp;-0.1304931640625;-0.09423828125;-1.1734466552734375;
2024-10-12 23:19:31;1728764375.637305;faceUp;-0.21319580078125;0.0328369140625;-0.6751251220703125;
2024-10-12 23:19:31;1728764375.692713;faceUp;-0.3392486572265625;0.09918212890625;-0.5861358642578125;
2024-10-12 23:19:31;1728764375.742264;faceUp;-0.3394622802734375;-0.229705810546875;-0.4594879150390625;
2024-10-12 23:19:31;1728764375.793376;faceUp;-0.122528076171875;-0.4456939697265625;-1.12371826171875;
2024-10-12 23:19:31;1728764375.8430629;faceUp;-0.141998291015625;-0.3056793212890625;-1.4513702392578125;
2024-10-12 23:19:31;1728764375.8842359;faceUp;-0.1014404296875;-0.4239959716796875;-1.3437652587890625;
2024-10-12 23:19:31;1728764375.940742;faceUp;0.2191009521484375;-0.5074615478515625;-1.2811431884765625;
2024-10-12 23:19:31;1728764375.9932718;faceUp;0.3601226806640625;-0.45330810546875;-0.927093505859375;
2024-10-12 23:19:31;1728764376.0432239;faceUp;0.516693115234375;-0.4757080078125;-0.831024169921875;
2024-10-12 23:19:31;1728764376.092987;faceUp;0.3090667724609375;-0.1481170654296875;-0.6610107421875;
2024-10-12 23:19:31;1728764376.1422272;faceUp;0.2596282958984375;-0.1939849853515625;-0.7924041748046875;
2024-10-12 23:19:31;1728764376.19341;faceUp;0.22064208984375;-0.3894195556640625;-1.14459228515625;
2024-10-12 23:19:31;1728764376.24211;faceUp;-0.097076416015625;-0.2584228515625;-1.4414215087890625;
2024-10-12 23:19:31;1728764376.290851;faceUp;-0.2671051025390625;0.0893402099609375;-1.1548309326171875;
2024-10-12 23:19:31;1728764376.333199;faceUp;-0.478607177734375;0.121307373046875;-0.8538055419921875;
2024-10-12 23:19:31;1728764376.39224;faceUp;-0.3200836181640625;-0.029998779296875;-0.71466064453125;
2024-10-12 23:19:31;1728764376.441205;faceUp;-0.28289794921875;-0.0908660888671875;-0.5260467529296875;
2024-10-12 23:19:31;1728764376.4829879;faceUp;0.1193389892578125;-0.3805999755859375;-0.9521636962890625;
2024-10-12 23:19:31;1728764376.539847;faceUp;0.0243377685546875;-0.5319366455078125;-0.80255126953125;
2024-10-12 23:19:31;1728764376.590899;faceUp;0.3028411865234375;-0.692901611328125;-0.9831695556640625;
2024-10-12 23:19:31;1728764376.6418118;faceUp;0.173065185546875;-0.7422332763671875;-1.174102783203125;
2024-10-12 23:19:31;1728764376.689836;portrait;0.0941314697265625;-0.5459136962890625;-0.8103485107421875;
2024-10-12 23:19:31;1728764376.7410269;portrait;0.165740966796875;-0.54534912109375;-0.8592681884765625;
2024-10-12 23:19:31;1728764376.789845;portrait;-0.1214599609375;-0.309478759765625;-0.9573822021484375;
2024-10-12 23:19:31;1728764376.84063;portrait;0.5278167724609375;-0.6966552734375;-1.46978759765625;
2024-10-12 23:19:31;1728764376.889091;portrait;0.2327117919921875;-0.29132080078125;-1.6232757568359375;
2024-10-12 23:19:31;1728764376.941267;portrait;-0.086273193359375;-0.2261962890625;-1.7815093994140625;
2024-10-12 23:19:31;1728764376.9894009;portrait;-0.0376129150390625;0.00897216796875;-1.3155517578125;
2024-10-12 23:19:31;1728764377.032989;portrait;0.0093994140625;0.1574859619140625;-0.5253143310546875;
2024-10-12 23:19:31;1728764377.090817;portrait;-0.2754974365234375;-0.1915283203125;-0.5493011474609375;
2024-10-12 23:19:31;1728764377.136627;portrait;-0.509368896484375;-0.1060943603515625;-0.785491943359375;
2024-10-12 23:19:31;1728764377.188239;portrait;-0.0384979248046875;-0.1696929931640625;-0.6219024658203125;
2024-10-12 23:19:31;1728764377.231409;portrait;0.0250396728515625;-0.4852142333984375;-1.2209930419921875;
2024-10-12 23:19:31;1728764377.288348;faceUp;0.0692138671875;-0.543701171875;-1.0835418701171875;
2024-10-12 23:19:31;1728764377.3318338;faceUp;0.2658538818359375;-0.67877197265625;-0.953460693359375;
2024-10-12 23:19:31;1728764377.389158;faceUp;0.1950836181640625;-0.6783599853515625;-0.55792236328125;
2024-10-12 23:19:31;1728764377.431968;portrait;0.2506103515625;-0.5993194580078125;-0.3391265869140625;
2024-10-12 23:19:31;1728764377.481017;portrait;0.342315673828125;-0.7453460693359375;-0.4481353759765625;
2024-10-12 23:19:31;1728764377.539438;portrait;0.324920654296875;-0.8939056396484375;-1.0901947021484375;
2024-10-12 23:19:31;1728764377.580915;portrait;-0.0924072265625;-0.638519287109375;-1.402618408203125;
2024-10-12 23:19:31;1728764377.6388788;portrait;-0.253692626953125;-0.4763336181640625;-1.3541107177734375;
2024-10-12 23:19:31;1728764377.6893811;portrait;-0.0698699951171875;-0.4243927001953125;-0.9183502197265625;
2024-10-12 23:19:31;1728764377.738405;portrait;0.02386474609375;-0.09954833984375;-0.594512939453125;
2024-10-12 23:19:31;1728764377.788171;portrait;-0.1829376220703125;0.1009063720703125;-0.415191650390625;
2024-10-12 23:19:31;1728764377.838386;portrait;-0.1200408935546875;-0.022552490234375;-0.471282958984375;
2024-10-12 23:19:31;1728764377.88149;portrait;-0.3768463134765625;-0.361541748046875;-1.0045318603515625;
2024-10-12 23:19:31;1728764377.9300752;portrait;-0.3661346435546875;-0.3531951904296875;-1.4983673095703125;
2024-10-12 23:19:31;1728764377.9884892;portrait;-0.3998870849609375;-0.5887908935546875;-1.243804931640625;
2024-10-12 23:19:31;1728764378.038107;portrait;0.0538787841796875;-0.73895263671875;-1.1811065673828125;
2024-10-12 23:19:31;1728764378.087379;portrait;0.134033203125;-0.6231231689453125;-0.6888427734375;
2024-10-12 23:19:31;1728764378.138016;portrait;0.1854248046875;-0.4483489990234375;-0.37005615234375;
2024-10-12 23:19:31;1728764378.1881661;portrait;0.131622314453125;-0.512237548828125;-0.827789306640625;
2024-10-12 23:19:31;1728764378.232335;portrait;0.0372772216796875;-0.5331268310546875;-1.343658447265625;
2024-10-12 23:19:31;1728764378.282051;portrait;-0.09912109375;-0.36761474609375;-1.537139892578125;
2024-10-12 23:19:31;1728764378.3308392;portrait;-0.13336181640625;-0.1413116455078125;-1.31121826171875;
2024-10-12 23:19:31;1728764378.381359;portrait;-0.1546173095703125;0.0547027587890625;-0.8433685302734375;
2024-10-12 23:19:31;1728764378.434389;portrait;-0.19573974609375;0.0576171875;-0.4220123291015625;
2024-10-12 23:19:31;1728764378.486505;portrait;-0.1730804443359375;-0.017852783203125;-0.3650970458984375;
2024-10-12 23:19:31;1728764378.536377;portrait;-0.130889892578125;-0.1906585693359375;-0.6207427978515625;
2024-10-12 23:19:31;1728764378.587915;portrait;-0.236053466796875;-0.377777099609375;-1.030792236328125;
2024-10-12 23:19:31;1728764378.634653;portrait;-0.0040740966796875;-0.2151336669921875;-1.1702117919921875;
2024-10-12 23:19:31;1728764378.683981;faceUp;-0.0279388427734375;-0.3505859375;-1.476470947265625;
2024-10-12 23:19:31;1728764378.734786;faceUp;-0.066192626953125;-0.2806396484375;-1.25018310546875;
2024-10-12 23:19:31;1728764378.778507;faceUp;0.115753173828125;-0.3365631103515625;-0.833984375;
2024-10-12 23:19:31;1728764378.828351;faceUp;0.3284149169921875;-0.35650634765625;-0.5787353515625;
2024-10-12 23:19:31;1728764378.88442;faceUp;0.3965606689453125;-0.5870361328125;-0.9567108154296875;
2024-10-12 23:19:31;1728764378.928169;faceUp;0.5526123046875;-0.5585479736328125;-1.2878570556640625;
2024-10-12 23:19:31;1728764378.983412;faceUp;0.2247314453125;-0.2669677734375;-1.5608062744140625;
2024-10-12 23:19:31;1728764379.0347981;faceUp;-0.0784149169921875;-0.07318115234375;-1.31622314453125;
2024-10-12 23:19:31;1728764379.0781178;faceUp;-0.1030426025390625;0.23663330078125;-0.87896728515625;
2024-10-12 23:19:31;1728764379.134396;faceUp;-0.34210205078125;0.1740264892578125;-0.952911376953125;
2024-10-12 23:19:31;1728764379.178725;faceUp;-0.475738525390625;0.10321044921875;-0.3546295166015625;
2024-10-12 23:19:31;1728764379.233601;faceUp;-0.0818023681640625;-0.05511474609375;-0.5252838134765625;
2024-10-12 23:19:31;1728764379.284037;faceUp;0.0877838134765625;-0.2891082763671875;-0.8906707763671875;
2024-10-12 23:19:31;1728764379.333755;faceUp;0.21783447265625;-0.4350738525390625;-1.235626220703125;
2024-10-12 23:19:31;1728764379.380649;faceUp;0.305938720703125;-0.447723388671875;-1.466156005859375;
2024-10-12 23:19:31;1728764379.428062;faceUp;0.363006591796875;-0.208282470703125;-1.12603759765625;
2024-10-12 23:19:31;1728764379.482373;faceUp;0.165069580078125;-0.008056640625;-1.2129364013671875;
2024-10-12 23:19:31;1728764379.534471;faceUp;0.0153961181640625;0.0121307373046875;-0.8788604736328125;
2024-10-12 23:19:31;1728764379.583538;faceUp;0.21026611328125;-0.0531158447265625;-1.32183837890625;
2024-10-12 23:19:31;1728764379.632689;faceUp;0.0975341796875;-0.00323486328125;-1.2258758544921875;
2024-10-12 23:19:31;1728764379.6815438;faceUp;0.121002197265625;0.0655670166015625;-1.3592071533203125;
2024-10-12 23:19:31;1728764379.7301722;faceUp;-0.215667724609375;0.1402130126953125;-1.065460205078125;
2024-10-12 23:19:31;1728764379.7796168;faceUp;-0.3715972900390625;0.1292572021484375;-0.9520721435546875;
2024-10-12 23:19:31;1728764379.8316898;faceUp;-0.356781005859375;0.050567626953125;-0.6118316650390625;
2024-10-12 23:19:31;1728764379.876039;faceUp;-0.15667724609375;-0.088531494140625;-0.64947509765625;
2024-10-12 23:19:31;1728764379.929486;faceUp;0.15631103515625;-0.2897491455078125;-0.8939361572265625;
2024-10-12 23:19:31;1728764379.979032;faceUp;0.265289306640625;-0.436981201171875;-1.146575927734375;
2024-10-12 23:19:31;1728764380.028613;faceUp;0.0540924072265625;-0.40966796875;-1.246917724609375;
2024-10-12 23:19:31;1728764380.07881;faceUp;0.005645751953125;-0.439178466796875;-1.35321044921875;
2024-10-12 23:19:31;1728764380.128346;faceUp;0.0352783203125;-0.4288482666015625;-1.0005950927734375;
2024-10-12 23:19:31;1728764380.1786718;faceUp;0.2665557861328125;-0.5747528076171875;-0.6914215087890625;
2024-10-12 23:19:31;1728764380.2323442;faceUp;0.41998291015625;-0.464569091796875;-0.53912353515625;
2024-10-12 23:19:31;1728764380.283852;faceUp;0.4325103759765625;-0.5201873779296875;-0.60760498046875;
2024-10-12 23:19:31;1728764380.3338099;faceUp;0.1699371337890625;-0.5823211669921875;-1.29986572265625;
2024-10-12 23:19:31;1728764380.382196;faceUp;-0.1164398193359375;-0.2890167236328125;-1.596160888671875;
2024-10-12 23:19:31;1728764380.432955;faceUp;-0.1020965576171875;-0.1971435546875;-1.38995361328125;
2024-10-12 23:19:31;1728764380.481762;faceUp;-0.2138671875;-0.0009307861328125;-1.2091064453125;
2024-10-12 23:19:31;1728764380.533072;faceUp;-0.4072265625;0.0063018798828125;-0.579559326171875;
2024-10-12 23:19:31;1728764380.5826678;faceUp;-0.3273162841796875;0.0694427490234375;-0.5355682373046875;
2024-10-12 23:19:31;1728764380.6317902;faceUp;-0.231964111328125;-0.0887908935546875;-0.6478424072265625;
2024-10-12 23:19:31;1728764380.680039;faceUp;-0.030792236328125;-0.252227783203125;-0.8589935302734375;
2024-10-12 23:19:31;1728764380.731833;faceUp;0.2573394775390625;-0.59466552734375;-0.98968505859375;
2024-10-12 23:19:31;1728764380.782323;faceUp;0.36895751953125;-0.5938262939453125;-1.121307373046875;
2024-10-12 23:19:31;1728764380.824314;faceUp;0.6319427490234375;-0.5923309326171875;-1.0798492431640625;
2024-10-12 23:19:31;1728764380.883429;faceUp;0.6099853515625;-0.497894287109375;-0.666595458984375;
2024-10-12 23:19:31;1728764380.93262;faceUp;0.5385894775390625;-0.385711669921875;-0.7594757080078125;
2024-10-12 23:19:31;1728764380.983135;faceUp;0.3343963623046875;-0.2153167724609375;-0.828704833984375;
2024-10-12 23:19:31;1728764381.025213;faceUp;0.456939697265625;-0.3396453857421875;-1.231170654296875;
2024-10-12 23:19:31;1728764381.083091;faceUp;0.12677001953125;-0.06494140625;-1.8556060791015625;
2024-10-12 23:19:31;1728764381.1324558;faceUp;0.0272369384765625;0.0457916259765625;-1.40771484375;
2024-10-12 23:19:31;1728764381.180124;faceUp;-0.003326416015625;0.1494293212890625;-1.0029754638671875;
2024-10-12 23:19:31;1728764381.2304611;faceUp;-0.2507171630859375;0.1298370361328125;-0.7386627197265625;
2024-10-12 23:19:31;1728764381.279844;faceUp;-0.1483306884765625;-0.069915771484375;-0.57391357421875;
2024-10-12 23:19:31;1728764381.3295488;faceUp;-0.08544921875;-0.252655029296875;-0.759521484375;
2024-10-12 23:19:31;1728764381.3796968;faceUp;-0.0064239501953125;-0.353485107421875;-0.9075164794921875;
2024-10-12 23:19:31;1728764381.4304662;faceUp;0.173431396484375;-0.4197540283203125;-1.0347747802734375;
2024-10-12 23:19:31;1728764381.479193;faceUp;0.203521728515625;-0.4459991455078125;-1.1273956298828125;
2024-10-12 23:19:31;1728764381.528782;faceUp;0.2369537353515625;-0.3594512939453125;-0.9534149169921875;
2024-10-12 23:19:31;1728764381.58111;faceUp;0.21435546875;-0.363311767578125;-0.66741943359375;
2024-10-12 23:19:31;1728764381.630652;faceUp;0.2083740234375;-0.2500152587890625;-0.56976318359375;
2024-10-12 23:19:31;1728764381.681213;faceUp;0.2635345458984375;-0.311737060546875;-0.85150146484375;
2024-10-12 23:19:31;1728764381.730591;faceUp;0.30841064453125;-0.25054931640625;-1.223052978515625;
2024-10-12 23:19:31;1728764381.779367;faceUp;0.119781494140625;-0.216705322265625;-1.358489990234375;
2024-10-12 23:19:31;1728764381.829999;faceUp;-0.202392578125;-0.1014556884765625;-1.247344970703125;
2024-10-12 23:19:31;1728764381.877907;faceUp;-0.182861328125;-0.0890655517578125;-0.8214263916015625;
2024-10-12 23:19:31;1728764381.9270968;faceUp;-0.194671630859375;-0.0482940673828125;-0.6969451904296875;
2024-10-12 23:19:31;1728764381.9804459;faceUp;-0.36248779296875;-0.2709503173828125;-0.6129302978515625;
2024-10-12 23:19:31;1728764382.0299392;faceUp;-0.0991058349609375;-0.5705718994140625;-0.8733367919921875;
2024-10-12 23:19:31;1728764382.078742;faceUp;-0.2144622802734375;-0.4969940185546875;-1.08380126953125;
2024-10-12 23:19:31;1728764382.129544;faceUp;-0.0990447998046875;-0.7149658203125;-1.0917816162109375;
2024-10-12 23:19:31;1728764382.179311;portrait;-0.0878448486328125;-0.7486419677734375;-1.0728302001953125;
2024-10-12 23:19:31;1728764382.2297668;portrait;0.043731689453125;-0.5976715087890625;-0.641265869140625;
2024-10-12 23:19:31;1728764382.279179;portrait;0.110870361328125;-0.4132537841796875;-0.3953094482421875;
2024-10-12 23:19:31;1728764382.328617;portrait;0.173248291015625;-0.4313507080078125;-0.152679443359375;
2024-10-12 23:19:31;1728764382.378979;portrait;0.432525634765625;-0.6917572021484375;-1.137115478515625;
2024-10-12 23:19:31;1728764382.427012;portrait;-0.08758544921875;-0.575225830078125;-1.757110595703125;
2024-10-12 23:19:31;1728764382.478364;portrait;-0.2437286376953125;-0.4673309326171875;-1.954010009765625;
2024-10-12 23:19:31;1728764382.52951;portrait;-0.4887847900390625;-0.2101593017578125;-1.3070831298828125;
2024-10-12 23:19:31;1728764382.5807118;portrait;-0.5388336181640625;-0.2110595703125;-0.868194580078125;
2024-10-12 23:19:31;1728764382.629235;portrait;-0.4541015625;0.0356597900390625;-0.58660888671875;
2024-10-12 23:19:31;1728764382.678374;portrait;-0.589385986328125;-0.146026611328125;-0.3326263427734375;
2024-10-12 23:19:31;1728764382.720741;portrait;-0.0427703857421875;-0.2419586181640625;-0.410491943359375;
2024-10-12 23:19:31;1728764382.771577;portrait;0.0263214111328125;-0.328704833984375;-0.8421478271484375;
2024-10-12 23:19:31;1728764382.82148;portrait;0.215667724609375;-0.457977294921875;-0.9380645751953125;
2024-10-12 23:19:31;1728764382.871494;portrait;0.3031005859375;-0.6970062255859375;-1.0904693603515625;
2024-10-12 23:19:31;1728764382.921527;portrait;0.35101318359375;-0.6154022216796875;-1.583953857421875;
2024-10-12 23:19:31;1728764382.9711819;portrait;0.2243194580078125;-0.4442901611328125;-0.9886932373046875;
2024-10-12 23:19:31;1728764383.0212421;portrait;0.279296875;-0.287628173828125;-0.602935791015625;
2024-10-12 23:19:31;1728764383.071115;portrait;0.2507476806640625;-0.281463623046875;-0.32598876953125;
2024-10-12 23:19:31;1728764383.121169;portrait;0.42071533203125;-0.37188720703125;-0.7952880859375;
2024-10-12 23:19:31;1728764383.1710181;portrait;0.3165740966796875;-0.3958587646484375;-1.3148040771484375;
2024-10-12 23:19:31;1728764383.220983;portrait;-0.051544189453125;-0.193756103515625;-1.6151275634765625;
2024-10-12 23:19:31;1728764383.2707071;portrait;0.25299072265625;-0.2882537841796875;-1.5581817626953125;
2024-10-12 23:19:31;1728764383.320527;portrait;-0.15966796875;-0.06787109375;-1.3117523193359375;
2024-10-12 23:19:31;1728764383.370719;portrait;-0.000823974609375;-0.0029449462890625;-0.7097625732421875;
2024-10-12 23:19:31;1728764383.420402;portrait;-0.2059478759765625;-0.0904693603515625;-0.6199493408203125;
2024-10-12 23:19:31;1728764383.470468;portrait;-0.413421630859375;-0.1233367919921875;-0.9648590087890625;
2024-10-12 23:19:31;1728764383.520001;portrait;0.0805816650390625;-0.228668212890625;-0.7138214111328125;
2024-10-12 23:19:31;1728764383.56989;portrait;0.2795257568359375;-0.3306427001953125;-1.107757568359375;
2024-10-12 23:19:31;1728764383.619781;portrait;0.4188690185546875;-0.51544189453125;-1.0630340576171875;
2024-10-12 23:19:31;1728764383.669761;faceUp;0.3749542236328125;-0.460479736328125;-1.6652069091796875;
2024-10-12 23:19:31;1728764383.719881;faceUp;0.0673065185546875;-0.40020751953125;-0.90966796875;
2024-10-12 23:19:31;1728764383.769911;faceUp;0.4395599365234375;-0.65447998046875;-0.5633544921875;
2024-10-12 23:19:31;1728764383.819633;faceUp;0.174407958984375;-0.4215240478515625;-0.3530120849609375;
2024-10-12 23:19:31;1728764383.8764849;faceUp;0.36224365234375;-0.450958251953125;-0.7291107177734375;
2024-10-12 23:19:31;1728764383.919168;faceUp;0.5191192626953125;-0.2662506103515625;-1.404327392578125;
2024-10-12 23:19:31;1728764383.976371;faceUp;0.2021942138671875;-0.0027618408203125;-1.654296875;
2024-10-12 23:19:31;1728764384.017884;faceUp;0.0951690673828125;-0.07244873046875;-1.21759033203125;
2024-10-12 23:19:31;1728764384.07704;faceUp;0.06402587890625;0.0149078369140625;-0.7642364501953125;
2024-10-12 23:19:31;1728764384.1179528;faceUp;-0.1446533203125;-0.0197906494140625;-0.4005279541015625;
2024-10-12 23:19:31;1728764384.168116;faceUp;-0.170989990234375;-0.1354217529296875;-0.619476318359375;
2024-10-12 23:19:31;1728764384.2258239;faceUp;-0.4979705810546875;-0.28936767578125;-0.9834136962890625;
2024-10-12 23:19:31;1728764384.273024;faceUp;-0.2357940673828125;-0.5693511962890625;-1.32623291015625;
2024-10-12 23:19:31;1728764384.324158;faceUp;-0.0954437255859375;-0.7236785888671875;-1.2342529296875;
2024-10-12 23:19:31;1728764384.375818;faceUp;0.189178466796875;-0.60272216796875;-1.15008544921875;
2024-10-12 23:19:31;1728764384.424131;faceUp;0.2154083251953125;-0.5333251953125;-0.9107666015625;
2024-10-12 23:19:31;1728764384.475992;faceUp;0.145538330078125;-0.4012603759765625;-0.5825042724609375;
2024-10-12 23:19:31;1728764384.526191;faceUp;0.2889862060546875;-0.340362548828125;-0.4683837890625;
2024-10-12 23:19:31;1728764384.5764241;faceUp;0.3614349365234375;-0.54620361328125;-0.8708038330078125;
2024-10-12 23:19:31;1728764384.623579;faceUp;0.1199493408203125;-0.3561859130859375;-1.2968597412109375;
2024-10-12 23:19:31;1728764384.672783;faceUp;0.1669158935546875;-0.2526092529296875;-1.408294677734375;
2024-10-12 23:19:31;1728764384.723559;faceUp;-0.022003173828125;0.0157318115234375;-1.20513916015625;
2024-10-12 23:19:31;1728764384.7710161;faceUp;-0.136444091796875;0.07525634765625;-0.7754669189453125;
2024-10-12 23:19:31;1728764384.8232079;faceUp;-0.242919921875;0.0543670654296875;-0.3662261962890625;
2024-10-12 23:19:31;1728764384.870909;faceUp;-0.261566162109375;-0.1702880859375;-0.4595184326171875;
2024-10-12 23:19:31;1728764384.917484;faceUp;-0.177276611328125;-0.55035400390625;-0.9389495849609375;
2024-10-12 23:19:31;1728764384.973411;faceUp;-0.219635009765625;-0.4516143798828125;-1.1789398193359375;
2024-10-12 23:19:31;1728764385.023721;faceUp;-0.0253143310546875;-0.5618133544921875;-1.32562255859375;
2024-10-12 23:19:31;1728764385.073811;faceUp;0.0098114013671875;-0.45135498046875;-1.244842529296875;
2024-10-12 23:19:31;1728764385.122133;faceUp;0.031768798828125;-0.3852996826171875;-0.787841796875;
2024-10-12 23:19:31;1728764385.17402;faceUp;0.20318603515625;-0.502960205078125;-0.3438720703125;
2024-10-12 23:19:31;1728764385.218837;faceUp;0.396697998046875;-0.4215240478515625;-0.217010498046875;
2024-10-12 23:19:31;1728764385.2655358;faceUp;0.3921356201171875;-0.6300506591796875;-1.0727691650390625;
2024-10-12 23:19:31;1728764385.315702;faceUp;0.655731201171875;-0.4864654541015625;-1.8890838623046875;
2024-10-12 23:19:31;1728764385.369004;faceUp;0.1339111328125;-0.138031005859375;-2.0868682861328125;
2024-10-12 23:19:31;1728764385.418463;faceUp;0.005157470703125;0.107025146484375;-1.3341217041015625;
2024-10-12 23:19:31;1728764385.4679918;faceUp;-0.028289794921875;0.0939483642578125;-0.714111328125;
2024-10-12 23:19:31;1728764385.518671;faceUp;-0.137054443359375;0.1352386474609375;-0.3521881103515625;
2024-10-12 23:19:31;1728764385.573903;faceUp;-0.272705078125;-0.0030517578125;-0.3626708984375;
2024-10-12 23:19:31;1728764385.62303;faceUp;-0.1356201171875;-0.37396240234375;-0.7610931396484375;
2024-10-12 23:19:31;1728764385.672477;faceUp;-0.2666778564453125;-0.4889373779296875;-1.0594940185546875;
2024-10-12 23:19:31;1728764385.723093;faceUp;-0.1062774658203125;-0.561553955078125;-1.541595458984375;
2024-10-12 23:19:31;1728764385.7731218;faceUp;-0.2902069091796875;-0.6737060546875;-1.338104248046875;
2024-10-12 23:19:31;1728764385.823545;faceUp;0.1998291015625;-0.8095703125;-1.0152587890625;
2024-10-12 23:19:31;1728764385.873127;faceUp;0.447998046875;-0.6082763671875;-0.627410888671875;
2024-10-12 23:19:31;1728764385.915731;faceUp;0.4129180908203125;-0.3229827880859375;-0.572357177734375;
2024-10-12 23:19:31;1728764385.973724;faceUp;0.2720184326171875;-0.3161773681640625;-1.1041259765625;
2024-10-12 23:19:31;1728764386.0142732;faceUp;0.3954315185546875;-0.13714599609375;-1.1616668701171875;
2024-10-12 23:19:31;1728764386.070524;faceUp;0.1552886962890625;-0.09234619140625;-1.5497283935546875;
2024-10-12 23:19:31;1728764386.120621;faceUp;-0.2099609375;0.238006591796875;-1.0668487548828125;
2024-10-12 23:19:31;1728764386.166687;faceUp;-0.2613677978515625;0.1852569580078125;-0.628570556640625;
2024-10-12 23:19:31;1728764386.222882;faceUp;-0.249237060546875;0.0072021484375;-0.5122833251953125;
2024-10-12 23:19:31;1728764386.2728791;faceUp;-0.1251373291015625;-0.41766357421875;-0.9793243408203125;
2024-10-12 23:19:31;1728764386.3218079;faceUp;-0.1201934814453125;-0.300201416015625;-1.1667633056640625;
2024-10-12 23:19:31;1728764386.3692;faceUp;-0.2626953125;-0.347869873046875;-1.394683837890625;
2024-10-12 23:19:31;1728764386.421321;faceUp;-0.1259918212890625;-0.3590850830078125;-1.330841064453125;
2024-10-12 23:19:31;1728764386.471412;faceUp;-0.023468017578125;-0.4058837890625;-0.8860321044921875;
2024-10-12 23:19:31;1728764386.5213032;faceUp;-0.0430145263671875;-0.3199310302734375;-0.495391845703125;
2024-10-12 23:19:31;1728764386.571161;faceUp;-0.0040740966796875;-0.364288330078125;-0.5725860595703125;
2024-10-12 23:19:31;1728764386.613058;faceUp;0.021392822265625;-0.3918304443359375;-0.9954376220703125;
2024-10-12 23:19:31;1728764386.6708012;faceUp;-0.015167236328125;-0.205657958984375;-1.2244415283203125;
2024-10-12 23:19:31;1728764386.7130132;faceUp;-0.2480316162109375;-0.0057220458984375;-1.3971405029296875;
2024-10-12 23:19:31;1728764386.770546;faceUp;-0.10113525390625;-0.011810302734375;-1.1170501708984375;
2024-10-12 23:19:31;1728764386.8195071;faceUp;-0.1241607666015625;-0.0734710693359375;-0.86920166015625;
2024-10-12 23:19:31;1728764386.867481;faceUp;-0.1908416748046875;-0.126068115234375;-0.95428466796875;
2024-10-12 23:19:31;1728764386.920793;faceUp;-0.185699462890625;-0.1705322265625;-0.7910614013671875;
2024-10-12 23:19:31;1728764386.96259;faceUp;-0.1855621337890625;0.0864105224609375;-0.8032989501953125;
2024-10-12 23:19:31;1728764387.020365;faceUp;-0.4309539794921875;0.0999755859375;-0.8278961181640625;
2024-10-12 23:19:31;1728764387.0699549;faceUp;-0.066558837890625;-0.2537384033203125;-1.0632171630859375;
2024-10-12 23:19:31;1728764387.117763;faceUp;-0.1168670654296875;-0.290771484375;-1.187347412109375;
2024-10-12 23:19:31;1728764387.1702418;faceUp;0.1215972900390625;-0.62744140625;-1.027984619140625;
2024-10-12 23:19:31;1728764387.220284;faceUp;0.1338043212890625;-0.74615478515625;-0.8906097412109375;
2024-10-12 23:19:31;1728764387.261992;faceUp;0.0410308837890625;-0.8059234619140625;-0.7198333740234375;
2024-10-12 23:19:31;1728764387.319693;faceUp;0.4912109375;-0.6551513671875;-0.71624755859375;
2024-10-12 23:19:31;1728764387.3685;portrait;0.17291259765625;-0.5379791259765625;-1.1939544677734375;
2024-10-12 23:19:31;1728764387.411519;portrait;0.3298797607421875;-0.2687225341796875;-1.2964019775390625;
2024-10-12 23:19:31;1728764387.4694118;portrait;0.5216064453125;-0.076934814453125;-1.5181884765625;
2024-10-12 23:19:31;1728764387.519319;portrait;0.62408447265625;0.135894775390625;-0.91986083984375;
2024-10-12 23:19:31;1728764387.569782;portrait;0.1404571533203125;0.2645111083984375;-1.1493682861328125;
2024-10-12 23:19:31;1728764387.615395;portrait;-0.1277313232421875;-0.16070556640625;-0.7541046142578125;
2024-10-12 23:19:31;1728764387.664465;portrait;-0.4458160400390625;0.0264434814453125;-1.0038909912109375;
2024-10-12 23:19:31;1728764387.7113562;portrait;-0.110107421875;-0.2062530517578125;-1.408966064453125;
2024-10-12 23:19:31;1728764387.768444;portrait;-0.0291595458984375;-0.3637542724609375;-1.1818084716796875;
2024-10-12 23:19:31;1728764387.819384;portrait;0.0470428466796875;-0.6805419921875;-0.9184112548828125;
2024-10-12 23:19:31;1728764387.8682861;portrait;0.4434661865234375;-0.916351318359375;-0.687286376953125;
2024-10-12 23:19:31;1728764387.919312;portrait;0.0355224609375;-0.4698944091796875;-0.5528411865234375;
2024-10-12 23:19:31;1728764387.9686399;portrait;0.5723876953125;-0.5648956298828125;-0.7630462646484375;
2024-10-12 23:19:31;1728764388.01881;portrait;0.3993988037109375;-0.4470977783203125;-1.2555999755859375;
2024-10-12 23:19:31;1728764388.06809;faceUp;0.272796630859375;-0.2273712158203125;-1.349822998046875;
2024-10-12 23:19:31;1728764388.1176581;faceUp;-0.1129302978515625;0.146087646484375;-0.9729461669921875;
2024-10-12 23:19:31;1728764388.168064;faceUp;-0.335205078125;0.0997772216796875;-0.875885009765625;
2024-10-12 23:19:31;1728764388.2184339;faceUp;-0.4298553466796875;-0.1322784423828125;-0.476470947265625;
2024-10-12 23:19:31;1728764388.267696;faceUp;-0.4926910400390625;0.128448486328125;-0.94415283203125;
2024-10-12 23:19:31;1728764388.3128629;faceUp;0.042144775390625;-0.2140350341796875;-0.8231964111328125;
2024-10-12 23:19:31;1728764388.366736;faceUp;-0.017974853515625;-0.4593048095703125;-1.1277008056640625;
2024-10-12 23:19:31;1728764388.409667;faceUp;0.2966156005859375;-0.496551513671875;-1.0155029296875;
2024-10-12 23:19:31;1728764388.46437;faceUp;0.340789794921875;-0.745819091796875;-0.7508392333984375;
2024-10-12 23:19:31;1728764388.516382;faceUp;0.28021240234375;-0.340789794921875;-0.725341796875;
2024-10-12 23:19:31;1728764388.568316;faceUp;0.092193603515625;-0.1815185546875;-1.2277984619140625;
2024-10-12 23:19:31;1728764388.6171122;faceUp;-0.191375732421875;0.01544189453125;-1.611663818359375;
2024-10-12 23:19:31;1728764388.663995;faceUp;-0.06842041015625;-0.0565185546875;-1.3109130859375;
2024-10-12 23:19:31;1728764388.717198;faceUp;-0.246612548828125;0.19281005859375;-0.8261260986328125;
2024-10-12 23:19:31;1728764388.766693;faceUp;-0.2567138671875;-0.0671844482421875;-0.4270172119140625;
2024-10-12 23:19:31;1728764388.816489;faceUp;-0.4345245361328125;-0.02947998046875;-0.2694244384765625;
2024-10-12 23:19:31;1728764388.858821;faceUp;-0.105072021484375;-0.391204833984375;-0.9369964599609375;
2024-10-12 23:19:31;1728764388.918077;faceUp;-0.173583984375;-0.099456787109375;-1.8976593017578125;
2024-10-12 23:19:31;1728764388.966065;faceUp;-0.203582763671875;-0.2011566162109375;-1.548187255859375;
2024-10-12 23:19:31;1728764389.0176249;faceUp;0.0571441650390625;-0.4178009033203125;-1.0392608642578125;
2024-10-12 23:19:31;1728764389.067061;faceUp;0.3944549560546875;-0.455718994140625;-0.4069366455078125;
2024-10-12 23:19:31;1728764389.11314;faceUp;0.3787384033203125;-0.260986328125;-0.5021514892578125;
2024-10-12 23:19:31;1728764389.166795;faceUp;0.2910919189453125;-0.3541259765625;-1.230499267578125;
2024-10-12 23:19:31;1728764389.216471;faceUp;0.0661773681640625;-0.0718536376953125;-1.596649169921875;
2024-10-12 23:19:31;1728764389.26338;faceUp;-0.10614013671875;-0.1151275634765625;-1.60772705078125;
2024-10-12 23:19:31;1728764389.317112;faceUp;-0.2818450927734375;-0.0238800048828125;-1.1298370361328125;
2024-10-12 23:19:31;1728764389.357483;faceUp;0.0298309326171875;-0.022064208984375;-0.7210693359375;
2024-10-12 23:19:31;1728764389.4077492;faceUp;-0.3968505859375;0.0393524169921875;-0.413116455078125;
2024-10-12 23:19:31;1728764389.461152;faceUp;-0.04571533203125;-0.342193603515625;-0.2915496826171875;
2024-10-12 23:19:31;1728764389.5126638;faceUp;-0.1893310546875;-0.567352294921875;-1.2044830322265625;
2024-10-12 23:19:31;1728764389.564258;faceUp;-0.0706634521484375;-0.2266693115234375;-1.2624969482421875;
2024-10-12 23:19:31;1728764389.614399;faceUp;0.2696685791015625;-0.47369384765625;-1.1406402587890625;
2024-10-12 23:19:31;1728764389.664297;faceUp;0.4527587890625;-0.4860992431640625;-0.951385498046875;
2024-10-12 23:19:31;1728764389.713927;faceUp;0.4980621337890625;-0.1930084228515625;-0.6016998291015625;
2024-10-12 23:19:31;1728764389.763663;faceUp;0.438720703125;-0.245452880859375;-1.0517120361328125;
2024-10-12 23:19:31;1728764389.813123;faceUp;-0.2219085693359375;0.1396331787109375;-1.5890045166015625;
2024-10-12 23:19:31;1728764389.862935;faceUp;-0.2685089111328125;-0.014923095703125;-1.398101806640625;
2024-10-12 23:19:31;1728764389.9096808;faceUp;-0.0243072509765625;-0.0791015625;-1.17279052734375;
2024-10-12 23:19:31;1728764389.9628549;faceUp;-0.00750732421875;0.0327606201171875;-0.6981658935546875;
2024-10-12 23:19:31;1728764390.013056;faceUp;-0.0310516357421875;0.026092529296875;-0.765106201171875;
2024-10-12 23:19:31;1728764390.0629668;faceUp;-0.0601043701171875;-0.284942626953125;-1.000701904296875;
2024-10-12 23:19:31;1728764390.113595;faceUp;0.2486419677734375;-0.3921661376953125;-1.070709228515625;
2024-10-12 23:19:31;1728764390.162617;faceUp;0.0110626220703125;-0.437225341796875;-1.2008209228515625;
2024-10-12 23:19:31;1728764390.214329;faceUp;0.123748779296875;-0.4624176025390625;-1.0692138671875;
2024-10-12 23:19:31;1728764390.263834;faceUp;0.1860504150390625;-0.4371490478515625;-0.74993896484375;
2024-10-12 23:19:31;1728764390.312685;faceUp;0.1862030029296875;-0.3291778564453125;-0.4426727294921875;
2024-10-12 23:19:31;1728764390.361285;faceUp;0.243896484375;-0.3522186279296875;-0.3960418701171875;
2024-10-12 23:19:31;1728764390.406478;faceUp;0.591217041015625;-0.5153350830078125;-0.856048583984375;
2024-10-12 23:19:31;1728764390.456244;faceUp;0.423797607421875;-0.34967041015625;-1.3473663330078125;
2024-10-12 23:19:31;1728764390.5124412;faceUp;0.5063934326171875;-0.1855926513671875;-1.32086181640625;
2024-10-12 23:19:31;1728764390.564612;faceUp;0.0243988037109375;0.0945892333984375;-1.2015380859375;
2024-10-12 23:19:31;1728764390.612241;faceUp;0.0720367431640625;0.0429229736328125;-0.873687744140625;
2024-10-12 23:19:31;1728764390.659545;faceUp;-0.1743621826171875;-0.06707763671875;-0.807525634765625;
2024-10-12 23:19:31;1728764390.706859;faceUp;-0.2459716796875;-0.2350921630859375;-0.9181060791015625;
2024-10-12 23:19:31;1728764390.759523;faceUp;-0.2795867919921875;-0.3898162841796875;-1.162353515625;
2024-10-12 23:19:31;1728764390.813551;faceUp;-0.2344818115234375;-0.3804779052734375;-1.124847412109375;
2024-10-12 23:19:31;1728764390.8641748;faceUp;0.0988311767578125;-0.684295654296875;-0.995269775390625;
2024-10-12 23:19:31;1728764390.909905;faceUp;0.301727294921875;-0.7740478515625;-0.9160308837890625;
2024-10-12 23:19:31;1728764390.962666;faceUp;0.129119873046875;-0.535308837890625;-0.606414794921875;
2024-10-12 23:19:31;1728764391.011215;portrait;0.3698577880859375;-0.7387542724609375;-0.515625;
2024-10-12 23:19:31;1728764391.0635362;portrait;0.327545166015625;-0.73724365234375;-0.7759857177734375;
2024-10-12 23:19:31;1728764391.113165;portrait;0.487060546875;-0.8095703125;-0.96734619140625;
2024-10-12 23:19:31;1728764391.16254;portrait;0.44384765625;-0.77099609375;-1.1239776611328125;
2024-10-12 23:19:31;1728764391.2041101;portrait;0.2079925537109375;-0.3679962158203125;-1.4259033203125;
2024-10-12 23:19:31;1728764391.260929;portrait;0.0571136474609375;-0.085906982421875;-0.8843536376953125;
2024-10-12 23:19:31;1728764391.312932;portrait;-0.1011810302734375;0.0185089111328125;-0.82708740234375;
2024-10-12 23:19:31;1728764391.362423;portrait;-0.325653076171875;-0.0858001708984375;-0.4864654541015625;
2024-10-12 23:19:31;1728764391.412321;portrait;-0.06378173828125;-0.2690887451171875;-0.72161865234375;
2024-10-12 23:19:31;1728764391.462809;portrait;-0.110626220703125;-0.5458831787109375;-0.7718353271484375;
2024-10-12 23:19:31;1728764391.51102;portrait;0.1873016357421875;-0.858734130859375;-0.8964996337890625;
2024-10-12 23:19:31;1728764391.561607;portrait;0.3283233642578125;-0.81341552734375;-0.7898101806640625;
2024-10-12 23:19:31;1728764391.61231;portrait;0.6039886474609375;-0.82794189453125;-0.5146636962890625;
2024-10-12 23:19:31;1728764391.653287;portrait;0.62652587890625;-0.9158477783203125;-0.8271331787109375;
2024-10-12 23:19:31;1728764391.7122378;portrait;0.4256744384765625;-0.771759033203125;-1.26654052734375;
2024-10-12 23:19:31;1728764391.754408;portrait;-0.01177978515625;-0.4980621337890625;-1.4962921142578125;
2024-10-12 23:19:31;1728764391.802882;portrait;0.215667724609375;-0.5152130126953125;-1.313446044921875;
2024-10-12 23:19:31;1728764391.8534079;portrait;-0.1109161376953125;-0.0552825927734375;-0.976409912109375;
2024-10-12 23:19:31;1728764391.90349;portrait;-0.1782989501953125;0.051239013671875;-1.0422210693359375;
2024-10-12 23:19:31;1728764391.953868;portrait;-0.155029296875;-0.025360107421875;-1.1262054443359375;
2024-10-12 23:19:31;1728764392.0041718;portrait;-0.124755859375;-0.4123687744140625;-1.174713134765625;
2024-10-12 23:19:31;1728764392.0536342;portrait;-0.1016082763671875;-0.4098968505859375;-0.9152069091796875;
2024-10-12 23:19:31;1728764392.1034021;portrait;0.00860595703125;-0.4671783447265625;-0.5796661376953125;
2024-10-12 23:19:31;1728764392.153592;portrait;-0.0416412353515625;-0.5072479248046875;-0.4515228271484375;
2024-10-12 23:19:31;1728764392.203243;portrait;-0.106964111328125;-0.2418060302734375;-0.5340576171875;
2024-10-12 23:19:31;1728764392.25318;portrait;0.1431427001953125;-0.27581787109375;-0.47698974609375;
2024-10-12 23:19:31;1728764392.303153;portrait;-0.2873382568359375;-0.1020660400390625;-0.87335205078125;
2024-10-12 23:19:31;1728764392.353241;portrait;-0.1942596435546875;-0.6386871337890625;-0.965362548828125;
2024-10-12 23:19:31;1728764392.402886;portrait;-0.3473968505859375;-0.7402496337890625;-0.9871978759765625;
2024-10-12 23:19:31;1728764392.452853;portrait;-0.36126708984375;-0.969482421875;-0.700103759765625;
2024-10-12 23:19:31;1728764392.501719;portrait;-0.197021484375;-0.96484375;-1.0007171630859375;
2024-10-12 23:19:31;1728764392.551515;portrait;-0.3714599609375;-0.3488616943359375;-0.6809539794921875;
2024-10-12 23:19:31;1728764392.602751;portrait;0.337310791015625;-0.599884033203125;-0.738433837890625;
2024-10-12 23:19:31;1728764392.65888;portrait;-0.1229248046875;-0.2956085205078125;-1.810638427734375;
2024-10-12 23:19:31;1728764392.7024;portrait;0.0391998291015625;-0.3263092041015625;-1.5922393798828125;
2024-10-12 23:19:31;1728764392.759272;portrait;-0.154052734375;0.138519287109375;-0.8535919189453125;
2024-10-12 23:19:31;1728764392.810452;portrait;-0.2731170654296875;0.0146331787109375;-0.7343292236328125;
2024-10-12 23:19:31;1728764392.859256;portrait;-0.2598724365234375;-0.2489776611328125;-0.69110107421875;
2024-10-12 23:19:31;1728764392.9073591;portrait;0.114837646484375;-0.6051483154296875;-0.9605560302734375;
2024-10-12 23:19:31;1728764392.959053;portrait;-0.2551727294921875;-0.240997314453125;-1.034759521484375;
2024-10-12 23:19:31;1728764393.0015569;portrait;0.0153656005859375;-0.619537353515625;-1.151580810546875;
2024-10-12 23:19:31;1728764393.059984;portrait;0.0293426513671875;-0.6109771728515625;-0.971649169921875;
2024-10-12 23:19:31;1728764393.109273;portrait;0.0426177978515625;-0.5503387451171875;-0.763885498046875;
2024-10-12 23:19:31;1728764393.157851;portrait;0.203155517578125;-0.490997314453125;-0.673309326171875;
2024-10-12 23:19:31;1728764393.201573;portrait;0.1109161376953125;-0.4248504638671875;-0.4527435302734375;
2024-10-12 23:19:31;1728764393.258642;portrait;0.4868621826171875;-0.6959228515625;-0.922454833984375;
2024-10-12 23:19:31;1728764393.3091102;portrait;0.0489501953125;-0.3733978271484375;-1.2399749755859375;
2024-10-12 23:19:31;1728764393.357997;portrait;0.1033172607421875;-0.4357757568359375;-1.202789306640625;
2024-10-12 23:19:31;1728764393.408114;portrait;-0.075592041015625;-0.1712188720703125;-1.3468475341796875;
2024-10-12 23:19:31;1728764393.458689;portrait;-0.238861083984375;-0.1213531494140625;-0.5892333984375;
2024-10-12 23:19:31;1728764393.499408;faceUp;-0.001495361328125;-0.0975341796875;-0.409912109375;
2024-10-12 23:19:31;1728764393.5497441;faceUp;-0.4983062744140625;0.054779052734375;-0.77447509765625;
2024-10-12 23:19:31;1728764393.608696;faceUp;-0.1669464111328125;-0.161529541015625;-1.114532470703125;
2024-10-12 23:19:31;1728764393.6585832;faceUp;-0.114349365234375;-0.538665771484375;-1.20135498046875;
2024-10-12 23:19:31;1728764393.708926;faceUp;0.0943450927734375;-0.7433929443359375;-0.8159027099609375;
2024-10-12 23:19:31;1728764393.7586222;faceUp;0.2612152099609375;-0.942047119140625;-0.9012451171875;
2024-10-12 23:19:31;1728764393.803838;faceUp;0.383392333984375;-0.58251953125;-0.610260009765625;
2024-10-12 23:19:31;1728764393.8494148;portrait;0.37109375;-0.612884521484375;-0.349273681640625;
2024-10-12 23:19:31;1728764393.904325;portrait;0.0561065673828125;-0.5939788818359375;-1.0212860107421875;
2024-10-12 23:19:31;1728764393.957117;portrait;0.4749755859375;-0.8043975830078125;-1.2341766357421875;
2024-10-12 23:19:31;1728764393.999835;portrait;0.0325775146484375;-0.4149932861328125;-1.341339111328125;
2024-10-12 23:19:31;1728764394.058072;portrait;-0.1725616455078125;-0.4848480224609375;-1.1252288818359375;
2024-10-12 23:19:31;1728764394.106044;portrait;-0.136199951171875;-0.262176513671875;-0.8677520751953125;
2024-10-12 23:19:31;1728764394.152049;portrait;-0.382537841796875;-0.0861358642578125;-0.384246826171875;
2024-10-12 23:19:31;1728764394.1982589;portrait;-0.27984619140625;-0.0774383544921875;-0.3684539794921875;
2024-10-12 23:19:31;1728764394.257766;portrait;-0.265838623046875;-0.4146270751953125;-0.6547393798828125;
2024-10-12 23:19:31;1728764394.307919;portrait;-0.0556182861328125;-0.541839599609375;-1.045928955078125;
2024-10-12 23:19:31;1728764394.357156;portrait;-0.135009765625;-0.5865020751953125;-1.282501220703125;
2024-10-12 23:19:31;1728764394.4061542;portrait;-0.139434814453125;-0.6640472412109375;-1.2553558349609375;
2024-10-12 23:19:31;1728764394.456089;portrait;0.185211181640625;-0.8356170654296875;-0.9038238525390625;
2024-10-12 23:19:31;1728764394.505834;portrait;0.5089263916015625;-0.775421142578125;-0.6063232421875;
2024-10-12 23:19:31;1728764394.556777;portrait;0.4710235595703125;-0.666229248046875;-0.6008453369140625;
2024-10-12 23:19:31;1728764394.605784;portrait;0.30828857421875;-0.6591033935546875;-1.1055450439453125;
2024-10-12 23:19:31;1728764394.6533918;portrait;0.1755523681640625;-0.568634033203125;-1.08184814453125;
2024-10-12 23:19:31;1728764394.697348;portrait;-0.012664794921875;-0.5825958251953125;-1.1213836669921875;
2024-10-12 23:19:31;1728764394.757173;portrait;-0.215301513671875;-0.32843017578125;-1.1685638427734375;
2024-10-12 23:19:31;1728764394.8040562;portrait;-0.352264404296875;-0.0591278076171875;-0.84820556640625;
2024-10-12 23:19:31;1728764394.8535209;portrait;-0.450927734375;-0.0091400146484375;-0.658111572265625;
2024-10-12 23:19:31;1728764394.897002;portrait;-0.4745941162109375;-0.0086212158203125;-0.630767822265625;
2024-10-12 23:19:31;1728764394.954186;portrait;-0.2972259521484375;-0.45556640625;-0.8238372802734375;
2024-10-12 23:19:31;1728764394.9966412;portrait;-0.0465087890625;-0.6480255126953125;-1.1873016357421875;
2024-10-12 23:19:31;1728764395.052737;portrait;-0.0998687744140625;-0.647857666015625;-1.0678558349609375;
2024-10-12 23:19:31;1728764395.103815;portrait;0.225799560546875;-0.7785186767578125;-1.2652587890625;
2024-10-12 23:19:31;1728764395.153321;portrait;0.12261962890625;-0.615936279296875;-0.9638824462890625;
2024-10-12 23:19:31;1728764395.202932;portrait;0.2688140869140625;-0.6911468505859375;-0.4234619140625;
2024-10-12 23:19:31;1728764395.253614;portrait;0.450469970703125;-0.629730224609375;-0.325714111328125;
2024-10-12 23:19:31;1728764395.296006;portrait;0.267791748046875;-0.6173553466796875;-0.794403076171875;
2024-10-12 23:19:31;1728764395.3524451;portrait;0.1941680908203125;-0.5906982421875;-1.0203857421875;
2024-10-12 23:19:31;1728764395.4031649;portrait;-0.258087158203125;-0.4038543701171875;-1.665924072265625;
2024-10-12 23:19:31;1728764395.4533138;portrait;-0.2602996826171875;-0.1740264892578125;-1.10626220703125;
2024-10-12 23:19:31;1728764395.502738;portrait;-0.2645416259765625;-0.1290130615234375;-0.71478271484375;
2024-10-12 23:19:31;1728764395.5528898;portrait;-0.2750244140625;-0.0869293212890625;-0.3622283935546875;
2024-10-12 23:19:31;1728764395.595835;portrait;-0.307525634765625;-0.2630157470703125;-0.489593505859375;
2024-10-12 23:19:31;1728764395.651873;portrait;-0.2185516357421875;-0.4249114990234375;-1.1752471923828125;
2024-10-12 23:19:31;1728764395.701585;portrait;-0.3301239013671875;-0.3729095458984375;-1.42022705078125;
2024-10-12 23:19:31;1728764395.752612;portrait;0.096343994140625;-0.6426239013671875;-0.9432373046875;
2024-10-12 23:19:31;1728764395.7976708;portrait;0.2086944580078125;-0.7577056884765625;-0.8689727783203125;
2024-10-12 23:19:31;1728764395.853065;portrait;0.1575164794921875;-0.5249176025390625;-0.5080108642578125;
2024-10-12 23:19:31;1728764395.9018931;portrait;0.18878173828125;-0.4959869384765625;-0.6695404052734375;
2024-10-12 23:19:31;1728764395.952923;portrait;0.093505859375;-0.6763153076171875;-1.1582794189453125;
2024-10-12 23:19:31;1728764396.002511;portrait;-0.1231536865234375;-0.5002899169921875;-1.8970489501953125;
2024-10-12 23:19:31;1728764396.056061;portrait;-0.3106231689453125;-0.0775146484375;-1.66143798828125;
2024-10-12 23:19:31;1728764396.1029139;portrait;-0.0744476318359375;-0.083404541015625;-0.854400634765625;
2024-10-12 23:19:31;1728764396.153086;portrait;-0.1438751220703125;-0.0572662353515625;-0.625091552734375;
2024-10-12 23:19:31;1728764396.2033958;portrait;-0.3321380615234375;0.142333984375;-0.6474761962890625;
2024-10-12 23:19:31;1728764396.253679;portrait;-0.014404296875;-0.1146240234375;-0.6389617919921875;
2024-10-12 23:19:31;1728764396.3037748;portrait;-0.2875213623046875;0.0291290283203125;-1.0870819091796875;
2024-10-12 23:19:31;1728764396.3536801;portrait;-0.0171051025390625;-0.2900543212890625;-1.043212890625;
2024-10-12 23:19:31;1728764396.403826;portrait;-0.127960205078125;-0.134979248046875;-1.2524261474609375;
2024-10-12 23:19:31;1728764396.452952;portrait;-0.0579071044921875;-0.1501922607421875;-1.307861328125;
2024-10-12 23:19:31;1728764396.5033069;portrait;-0.0341644287109375;-0.3712921142578125;-1.3826751708984375;
2024-10-12 23:19:31;1728764396.552298;portrait;-0.123291015625;-0.228240966796875;-1.4523162841796875;
2024-10-12 23:19:31;1728764396.603044;portrait;0.0631866455078125;-0.3878631591796875;-1.1400146484375;
2024-10-12 23:19:31;1728764396.653082;portrait;-0.0601654052734375;-0.3015899658203125;-0.9016265869140625;
2024-10-12 23:19:31;1728764396.702015;portrait;0.2115478515625;-0.3552703857421875;-0.5905303955078125;
2024-10-12 23:19:31;1728764396.7513762;portrait;0.108001708984375;-0.5702362060546875;-0.7830047607421875;
2024-10-12 23:19:31;1728764396.801511;portrait;0.1984405517578125;-0.461944580078125;-1.2288055419921875;
2024-10-12 23:19:31;1728764396.8511949;portrait;0.0729827880859375;-0.2899169921875;-1.2425079345703125;
2024-10-12 23:19:31;1728764396.900841;portrait;0.3631591796875;-0.3928680419921875;-0.920196533203125;
2024-10-12 23:19:31;1728764396.9518008;portrait;0.0378570556640625;-0.1617584228515625;-0.8515472412109375;
2024-10-12 23:19:31;1728764397.0009189;portrait;-0.278656005859375;-0.0305023193359375;-0.6371002197265625;
2024-10-12 23:19:31;1728764397.051564;portrait;-0.2382965087890625;-0.1080780029296875;-0.6648406982421875;
2024-10-12 23:19:31;1728764397.100522;portrait;-0.5089874267578125;-0.025909423828125;-0.82769775390625;
2024-10-12 23:19:31;1728764397.1472201;portrait;-0.04962158203125;-0.35113525390625;-1.29669189453125;
2024-10-12 23:19:31;1728764397.201498;portrait;-0.17431640625;-0.2681427001953125;-1.2530975341796875;
2024-10-12 23:19:31;1728764397.251548;portrait;0.139404296875;-0.596038818359375;-1.2621917724609375;
2024-10-12 23:19:31;1728764397.3017092;portrait;0.033935546875;-0.646087646484375;-1.2569732666015625;
2024-10-12 23:19:31;1728764397.351062;portrait;0.122467041015625;-0.6095428466796875;-0.9658050537109375;
2024-10-12 23:19:31;1728764397.400727;portrait;0.1617431640625;-0.770355224609375;-0.8285980224609375;
2024-10-12 23:19:31;1728764397.449734;portrait;0.239501953125;-0.6166534423828125;-0.4710235595703125;
2024-10-12 23:19:31;1728764397.500321;portrait;0.244354248046875;-0.671600341796875;-0.656982421875;
2024-10-12 23:19:31;1728764397.551125;portrait;0.2726287841796875;-0.68438720703125;-0.74505615234375;
2024-10-12 23:19:31;1728764397.591838;portrait;0.273101806640625;-0.976898193359375;-1.175537109375;
2024-10-12 23:19:31;1728764397.649812;portrait;0.0224151611328125;-0.4259185791015625;-1.124481201171875;
2024-10-12 23:19:31;1728764397.7003732;portrait;-0.068634033203125;0.12347412109375;-0.71051025390625;
2024-10-12 23:19:31;1728764397.749374;portrait;-0.290771484375;0.2401580810546875;-0.9470672607421875;
2024-10-12 23:19:31;1728764397.800695;portrait;-0.2842559814453125;0.1846160888671875;-0.7596435546875;
2024-10-12 23:19:31;1728764397.850132;portrait;0.0374298095703125;-0.33709716796875;-0.7344207763671875;
2024-10-12 23:19:31;1728764397.899808;portrait;0.0101776123046875;-0.758087158203125;-0.579925537109375;
2024-10-12 23:19:31;1728764397.941179;portrait;0.15643310546875;-1.0799407958984375;-0.8157958984375;
2024-10-12 23:19:31;1728764397.999423;portrait;0.2916107177734375;-0.9998931884765625;-0.9332275390625;
2024-10-12 23:19:31;1728764398.05075;portrait;0.1168060302734375;-0.55413818359375;-0.703765869140625;
2024-10-12 23:19:31;1728764398.099447;portrait;0.38116455078125;-0.712310791015625;-0.654571533203125;
2024-10-12 23:19:31;1728764398.1501942;portrait;0.2105255126953125;-0.6897430419921875;-0.772979736328125;
2024-10-12 23:19:31;1728764398.199798;portrait;0.5265350341796875;-0.502899169921875;-0.8170928955078125;
2024-10-12 23:19:31;1728764398.249761;portrait;0.059417724609375;-0.6750335693359375;-1.2537078857421875;
2024-10-12 23:19:31;1728764398.299264;portrait;-0.069091796875;-0.61370849609375;-1.354888916015625;
2024-10-12 23:19:31;1728764398.347784;portrait;-0.0234832763671875;-0.4499359130859375;-1.1531829833984375;
2024-10-12 23:19:31;1728764398.398865;portrait;-0.0593719482421875;-0.058380126953125;-0.8755340576171875;
2024-10-12 23:19:31;1728764398.447031;portrait;-0.3048095703125;-0.160919189453125;-0.78662109375;
2024-10-12 23:19:31;1728764398.489728;faceUp;-0.1795196533203125;-0.2122802734375;-0.58160400390625;
2024-10-12 23:19:31;1728764398.54004;faceUp;-0.3397979736328125;-0.3676605224609375;-1.0861663818359375;
2024-10-12 23:19:31;1728764398.5968819;faceUp;-0.270172119140625;-0.2726287841796875;-1.4981842041015625;
2024-10-12 23:19:31;1728764398.6397228;faceUp;-0.1848907470703125;-0.3324737548828125;-1.429473876953125;
2024-10-12 23:19:31;1728764398.6987128;faceUp;-0.019989013671875;-0.519500732421875;-1.094085693359375;
2024-10-12 23:19:31;1728764398.7489161;faceUp;0.2562255859375;-0.80303955078125;-0.8452911376953125;
2024-10-12 23:19:31;1728764398.7987099;faceUp;0.206573486328125;-0.6170654296875;-0.2908477783203125;
2024-10-12 23:19:31;1728764398.848233;faceUp;0.262542724609375;-0.5285797119140625;-0.0979766845703125;
2024-10-12 23:19:31;1728764398.889175;faceUp;0.3436279296875;-0.545623779296875;-0.54583740234375;
2024-10-12 23:19:31;1728764398.9392529;faceUp;0.081329345703125;-0.6841888427734375;-1.3103790283203125;
2024-10-12 23:19:31;1728764398.997099;faceUp;0.14569091796875;-0.3924102783203125;-1.5301055908203125;
2024-10-12 23:19:31;1728764399.047676;faceUp;-0.34588623046875;-0.1851348876953125;-1.004119873046875;
2024-10-12 23:19:31;1728764399.096981;faceUp;-0.107391357421875;-0.1558380126953125;-0.5843658447265625;
2024-10-12 23:19:31;1728764399.145711;faceUp;-0.2742767333984375;-0.063323974609375;-0.277435302734375;
2024-10-12 23:19:31;1728764399.194809;faceUp;-0.1640167236328125;-0.1974334716796875;-0.6107025146484375;
2024-10-12 23:19:31;1728764399.24727;faceUp;-0.1384124755859375;-0.776611328125;-0.96319580078125;
2024-10-12 23:19:31;1728764399.288262;faceUp;-0.162811279296875;-0.6771087646484375;-1.5347137451171875;
2024-10-12 23:19:31;1728764399.343638;faceUp;-0.0351104736328125;-0.823455810546875;-1.3170166015625;
2024-10-12 23:19:31;1728764399.39439;faceUp;0.1169586181640625;-0.8099822998046875;-1.039581298828125;
2024-10-12 23:19:31;1728764399.438301;faceUp;0.21728515625;-0.6825103759765625;-0.48724365234375;
2024-10-12 23:19:31;1728764399.496356;faceUp;0.3320159912109375;-0.7220611572265625;-0.281890869140625;
2024-10-12 23:19:31;1728764399.546027;faceUp;0.2077484130859375;-0.6191558837890625;-0.627685546875;
2024-10-12 23:19:31;1728764399.5948892;portrait;0.1705169677734375;-0.9263458251953125;-1.356414794921875;
2024-10-12 23:19:31;1728764399.646523;portrait;0.19818115234375;-0.6118316650390625;-1.252777099609375;
2024-10-12 23:19:31;1728764399.694855;portrait;0.0280303955078125;-0.4088134765625;-1.2359771728515625;
2024-10-12 23:19:31;1728764399.746653;portrait;-0.01312255859375;-0.0939178466796875;-0.8629913330078125;
2024-10-12 23:19:31;1728764399.787406;portrait;-0.1374359130859375;0.0056915283203125;-0.5271759033203125;
2024-10-12 23:19:31;1728764399.846589;portrait;-0.3270721435546875;0.061004638671875;-0.3019866943359375;
2024-10-12 23:19:31;1728764399.896267;portrait;-0.255096435546875;-0.4210968017578125;-0.7467193603515625;
2024-10-12 23:19:31;1728764399.9465199;portrait;-0.33673095703125;-0.9794769287109375;-1.0899505615234375;
2024-10-12 23:19:31;1728764399.995703;portrait;-0.3757171630859375;-0.8266754150390625;-1.2206268310546875;
2024-10-12 23:19:31;1728764400.041048;portrait;-0.1751861572265625;-0.8871307373046875;-0.9346923828125;
2024-10-12 23:19:31;1728764400.0939698;portrait;-0.0319061279296875;-0.8877716064453125;-0.798858642578125;
2024-10-12 23:19:31;1728764400.143567;portrait;0.0154266357421875;-0.569427490234375;-0.305877685546875;
2024-10-12 23:19:31;1728764400.196467;portrait;0.259918212890625;-0.398223876953125;-0.0374603271484375;
2024-10-12 23:19:31;1728764400.24406;portrait;0.18829345703125;-0.482421875;-0.32635498046875;
2024-10-12 23:19:31;1728764400.295356;portrait;0.1202239990234375;-1.0420379638671875;-1.292144775390625;
2024-10-12 23:19:31;1728764400.342188;portrait;0.5034637451171875;-0.9056243896484375;-1.710296630859375;
2024-10-12 23:19:31;1728764400.3935208;portrait;-0.09979248046875;-0.2756805419921875;-1.468841552734375;
2024-10-12 23:19:31;1728764400.436743;portrait;-0.023712158203125;-0.13311767578125;-1.0292510986328125;
2024-10-12 23:19:31;1728764400.4867349;portrait;-0.1263885498046875;0.102752685546875;-0.76654052734375;
2024-10-12 23:19:31;1728764400.5432901;portrait;-0.2032470703125;0.138824462890625;-0.6126861572265625;
2024-10-12 23:19:31;1728764400.587043;portrait;-0.2187347412109375;-0.2298431396484375;-0.758880615234375;
2024-10-12 23:19:31;1728764400.6432061;faceUp;-0.3448028564453125;-0.5369720458984375;-1.3701629638671875;
2024-10-12 23:19:31;1728764400.686918;faceUp;-0.273651123046875;-0.6988067626953125;-1.295074462890625;
2024-10-12 23:19:31;1728764400.735876;faceUp;-0.23480224609375;-0.9027252197265625;-1.056793212890625;
2024-10-12 23:19:31;1728764400.786837;faceUp;-0.1628265380859375;-1.009979248046875;-0.8550872802734375;
2024-10-12 23:19:31;1728764400.8357859;faceUp;0.1434478759765625;-0.8528289794921875;-0.5013427734375;
2024-10-12 23:19:31;1728764400.893248;faceUp;0.1111602783203125;-0.4945526123046875;-0.44329833984375;
2024-10-12 23:19:31;1728764400.9364429;faceUp;-0.0417327880859375;-0.3968505859375;-0.7985076904296875;
2024-10-12 23:19:31;1728764400.9868789;portrait;-0.0329742431640625;-0.673431396484375;-1.187255859375;
2024-10-12 23:19:31;1728764401.037092;portrait;-0.3218536376953125;-0.356109619140625;-1.4104766845703125;
2024-10-12 23:19:31;1728764401.087014;portrait;-0.3614654541015625;-0.2147369384765625;-1.141510009765625;
2024-10-12 23:19:31;1728764401.136981;portrait;-0.2340545654296875;-0.0754241943359375;-0.6311492919921875;
2024-10-12 23:19:31;1728764401.186759;portrait;-0.3340301513671875;0.0285491943359375;-0.43377685546875;
2024-10-12 23:19:31;1728764401.2365332;portrait;-0.36126708984375;-0.064453125;-0.50665283203125;
2024-10-12 23:19:31;1728764401.287061;portrait;-0.2732391357421875;-0.4813232421875;-1.1147003173828125;
2024-10-12 23:19:31;1728764401.3365989;portrait;-0.4709014892578125;-0.504913330078125;-1.476531982421875;
2024-10-12 23:19:31;1728764401.3869061;portrait;-0.1277008056640625;-0.718597412109375;-1.1111602783203125;
2024-10-12 23:19:31;1728764401.436312;portrait;-0.03369140625;-0.80328369140625;-0.89520263671875;
2024-10-12 23:19:31;1728764401.486782;portrait;0.027740478515625;-0.6498870849609375;-0.6844635009765625;
2024-10-12 23:19:31;1728764401.536813;portrait;0.155364990234375;-0.580047607421875;-0.5201568603515625;
2024-10-12 23:19:31;1728764401.5867128;portrait;0.0870513916015625;-0.429168701171875;-0.4247283935546875;
2024-10-12 23:19:31;1728764401.643125;portrait;0.27020263671875;-0.7848968505859375;-1.113494873046875;
2024-10-12 23:19:31;1728764401.69282;portrait;0.057098388671875;-0.68017578125;-1.6517181396484375;
2024-10-12 23:19:31;1728764401.742577;portrait;0.085296630859375;-0.534454345703125;-1.7183990478515625;
2024-10-12 23:19:31;1728764401.7912312;portrait;-0.01629638671875;-0.1600494384765625;-1.3559417724609375;
2024-10-12 23:19:31;1728764401.84092;portrait;-0.106353759765625;0.0033416748046875;-0.8756256103515625;
2024-10-12 23:19:31;1728764401.8927898;portrait;-0.14105224609375;-0.1886749267578125;-0.857208251953125;
2024-10-12 23:19:31;1728764401.941684;portrait;-0.4358062744140625;0.0464324951171875;-0.7245025634765625;
2024-10-12 23:19:31;1728764401.99232;portrait;-0.1703948974609375;-0.2173309326171875;-0.86114501953125;
2024-10-12 23:19:31;1728764402.0418591;portrait;-0.3241119384765625;-0.36639404296875;-0.760894775390625;
2024-10-12 23:19:31;1728764402.090709;portrait;-0.0854949951171875;-0.5232086181640625;-1.1854705810546875;
2024-10-12 23:19:31;1728764402.141622;portrait;-0.1610870361328125;-0.41094970703125;-0.963897705078125;
2024-10-12 23:19:31;1728764402.191853;portrait;-0.1657257080078125;-0.483001708984375;-0.6127166748046875;
2024-10-12 23:19:31;1728764402.241325;portrait;0.05902099609375;-0.4550933837890625;-0.4765625;
2024-10-12 23:19:31;1728764402.292255;portrait;0.0292816162109375;-0.4025115966796875;-0.426910400390625;
2024-10-12 23:19:31;1728764402.3417602;portrait;0.035736083984375;-0.4965362548828125;-0.6609039306640625;
2024-10-12 23:19:31;1728764402.390439;portrait;0.0943450927734375;-0.5737762451171875;-0.6236724853515625;
2024-10-12 23:19:31;1728764402.432159;portrait;0.107177734375;-0.642547607421875;-0.869171142578125;
2024-10-12 23:19:31;1728764402.490771;portrait;0.1210174560546875;-0.6202239990234375;-0.823486328125;
2024-10-12 23:19:31;1728764402.5407481;portrait;-0.0272979736328125;-0.52520751953125;-0.9801483154296875;
2024-10-12 23:19:31;1728764402.591228;portrait;0.0278167724609375;-0.419281005859375;-0.77545166015625;
2024-10-12 23:19:31;1728764402.639281;faceUp;0.468658447265625;-0.3856658935546875;-1.0562286376953125;
2024-10-12 23:19:31;1728764402.689367;faceUp;0.43145751953125;-0.654449462890625;-1.4862060546875;
2024-10-12 23:19:31;1728764402.741144;faceUp;0.374053955078125;-0.54827880859375;-1.6012115478515625;
2024-10-12 23:19:31;1728764402.789963;faceUp;0.087432861328125;-0.39300537109375;-1.4626922607421875;
2024-10-12 23:19:31;1728764402.831396;faceUp;0.1589202880859375;-0.45196533203125;-1.0726470947265625;
2024-10-12 23:19:31;1728764402.8899999;faceUp;-0.113433837890625;-0.2433929443359375;-0.9586029052734375;
2024-10-12 23:19:31;1728764402.939776;faceUp;-0.1748199462890625;-0.0543212890625;-0.8025970458984375;
2024-10-12 23:19:31;1728764402.9887462;faceUp;-0.344451904296875;-0.273590087890625;-0.5521087646484375;
2024-10-12 23:19:31;1728764403.038404;faceUp;-0.566009521484375;-0.02203369140625;-0.6003265380859375;
2024-10-12 23:19:31;1728764403.080608;faceUp;-0.142913818359375;-0.4103240966796875;-0.8370361328125;
2024-10-12 23:19:31;1728764403.139864;faceUp;-0.2085723876953125;-0.5001983642578125;-1.3072662353515625;
2024-10-12 23:19:31;1728764403.189964;faceUp;-0.005157470703125;-0.58990478515625;-1.2697296142578125;
2024-10-12 23:19:31;1728764403.239428;faceUp;0.295654296875;-0.873321533203125;-1.0198211669921875;
2024-10-12 23:19:31;1728764403.28797;faceUp;0.123046875;-0.6515350341796875;-0.8037872314453125;
2024-10-12 23:19:31;1728764403.337359;faceUp;0.2293243408203125;-0.7169189453125;-0.501007080078125;
2024-10-12 23:19:31;1728764403.388822;faceUp;0.2316131591796875;-0.704833984375;-0.32257080078125;
2024-10-12 23:19:31;1728764403.4349031;portrait;0.316253662109375;-0.7478485107421875;-1.0433807373046875;
2024-10-12 23:19:31;1728764403.489254;portrait;0.0904083251953125;-0.654144287109375;-1.420166015625;
2024-10-12 23:19:31;1728764403.534154;portrait;-0.041656494140625;-0.5179595947265625;-1.3255462646484375;
2024-10-12 23:19:31;1728764403.579804;portrait;-0.031494140625;-0.3436431884765625;-1.10809326171875;
2024-10-12 23:19:31;1728764403.637556;portrait;-0.1558074951171875;0.018463134765625;-0.6289825439453125;
2024-10-12 23:19:31;1728764403.6882238;portrait;-0.0413055419921875;-0.0232086181640625;-0.255126953125;
2024-10-12 23:19:31;1728764403.737246;portrait;-0.2719879150390625;-0.039794921875;-0.303802490234375;
2024-10-12 23:19:31;1728764403.783856;portrait;-0.1927337646484375;-0.28424072265625;-0.910186767578125;
2024-10-12 23:19:31;1728764403.837551;portrait;-0.223541259765625;-0.5003509521484375;-0.9793853759765625;
2024-10-12 23:19:31;1728764403.884129;portrait;0.0014495849609375;-0.8497772216796875;-0.927001953125;
2024-10-12 23:19:31;1728764403.937584;portrait;0.1171875;-1.1313323974609375;-1.10333251953125;
2024-10-12 23:19:31;1728764403.988406;portrait;-0.101470947265625;-0.762481689453125;-1.3685455322265625;
2024-10-12 23:19:31;1728764404.03685;portrait;0.1750946044921875;-0.66204833984375;-0.701629638671875;
2024-10-12 23:19:31;1728764404.085463;portrait;0.0723724365234375;-0.5954742431640625;-0.895538330078125;
2024-10-12 23:19:31;1728764404.1376119;portrait;0.0274505615234375;-0.4058380126953125;-1.009613037109375;
2024-10-12 23:19:31;1728764404.187587;portrait;0.1580810546875;-0.3285369873046875;-1.4910736083984375;
2024-10-12 23:19:31;1728764404.23609;portrait;0.0344085693359375;-0.13018798828125;-1.1375274658203125;
2024-10-12 23:19:31;1728764404.286629;portrait;-0.042022705078125;-0.1492156982421875;-0.8679656982421875;
2024-10-12 23:19:31;1728764404.3295279;faceUp;-0.241363525390625;0.076263427734375;-0.501129150390625;
2024-10-12 23:19:31;1728764404.386222;faceUp;-0.221893310546875;-0.08416748046875;-0.2501373291015625;
2024-10-12 23:19:31;1728764404.435834;faceUp;-0.22381591796875;-0.1790771484375;-0.828155517578125;
2024-10-12 23:19:31;1728764404.483341;faceUp;-0.09918212890625;-0.1751708984375;-0.6278228759765625;
2024-10-12 23:19:31;1728764404.53741;faceUp;-0.1051177978515625;-0.201171875;-1.5714111328125;
2024-10-12 23:19:31;1728764404.5778031;faceUp;-0.1875152587890625;-0.2536468505859375;-0.9093017578125;
2024-10-12 23:19:31;1728764404.627812;faceUp;0.1140289306640625;-0.9557952880859375;-1.0865936279296875;
2024-10-12 23:19:31;1728764404.682663;faceUp;0.101837158203125;-0.6717376708984375;-0.95684814453125;
2024-10-12 23:19:31;1728764404.735775;faceUp;0.3253631591796875;-0.5793304443359375;-0.540557861328125;
2024-10-12 23:19:31;1728764404.777429;faceUp;-0.00830078125;-0.58782958984375;-0.7310333251953125;
2024-10-12 23:19:31;1728764404.8274798;faceUp;0.3440704345703125;-0.487396240234375;-1.01812744140625;
2024-10-12 23:19:31;1728764404.8773232;faceUp;0.0979461669921875;-0.73046875;-1.337677001953125;
2024-10-12 23:19:31;1728764404.93377;faceUp;-0.0700836181640625;-0.3506317138671875;-1.392822265625;
2024-10-12 23:19:31;1728764404.983151;faceUp;-0.235137939453125;-0.3469085693359375;-1.2723388671875;
2024-10-12 23:19:31;1728764405.033498;faceUp;-0.2570343017578125;-0.193817138671875;-0.9795379638671875;
2024-10-12 23:19:31;1728764405.077899;faceUp;-0.08172607421875;-0.186798095703125;-0.5518951416015625;
2024-10-12 23:19:31;1728764405.1340508;faceUp;-0.3267822265625;-0.2305755615234375;-0.3837432861328125;
2024-10-12 23:19:31;1728764405.183749;faceUp;-0.108154296875;-0.2084808349609375;-0.3519134521484375;
2024-10-12 23:19:31;1728764405.233121;faceUp;-0.08740234375;-0.4434356689453125;-0.5720977783203125;
2024-10-12 23:19:31;1728764405.283186;faceUp;0.178955078125;-0.785003662109375;-1.168670654296875;
2024-10-12 23:19:31;1728764405.332734;faceUp;0.2004852294921875;-0.5423431396484375;-1.2772674560546875;
2024-10-12 23:19:31;1728764405.3832788;faceUp;0.3805389404296875;-0.736175537109375;-1.4680328369140625;
2024-10-12 23:19:31;1728764405.432445;faceUp;0.4127197265625;-0.7003021240234375;-0.9856719970703125;
2024-10-12 23:19:31;1728764405.482559;faceUp;0.3604278564453125;-0.5366973876953125;-0.769500732421875;
2024-10-12 23:19:31;1728764405.5332232;faceUp;0.3172607421875;-0.248931884765625;-0.7205657958984375;
2024-10-12 23:19:31;1728764405.583801;faceUp;-0.015869140625;0.04443359375;-1.097991943359375;
2024-10-12 23:19:31;1728764405.6337051;faceUp;0.2144012451171875;-0.3624725341796875;-1.2415313720703125;
2024-10-12 23:19:31;1728764405.6818771;faceUp;0.10821533203125;-0.3331298828125;-1.2578125;
2024-10-12 23:19:31;1728764405.732633;faceUp;-0.13671875;-0.203857421875;-1.1867218017578125;
2024-10-12 23:19:31;1728764405.77559;faceUp;-0.073944091796875;-0.1583404541015625;-0.7805633544921875;
2024-10-12 23:19:31;1728764405.8328671;faceUp;-0.31170654296875;-0.0436859130859375;-0.4371185302734375;
2024-10-12 23:19:31;1728764405.876155;faceUp;-0.3024749755859375;-0.2156219482421875;-0.309173583984375;
2024-10-12 23:19:31;1728764405.931778;faceUp;-0.202423095703125;-0.5311126708984375;-0.9013214111328125;
2024-10-12 23:19:31;1728764405.9761028;faceUp;-0.1221466064453125;-0.400054931640625;-1.339385986328125;
2024-10-12 23:19:31;1728764406.025704;faceUp;-0.1349029541015625;-0.692352294921875;-1.523162841796875;
2024-10-12 23:19:31;1728764406.077654;faceUp;0.036163330078125;-0.7236175537109375;-1.2674407958984375;
2024-10-12 23:19:31;1728764406.133335;faceUp;0.2906951904296875;-0.6573333740234375;-0.7728271484375;
2024-10-12 23:19:31;1728764406.1761742;faceUp;0.1520538330078125;-0.28839111328125;-0.508697509765625;
2024-10-12 23:19:31;1728764406.232125;faceUp;0.2502899169921875;-0.199859619140625;-0.4856719970703125;
2024-10-12 23:19:31;1728764406.275778;faceUp;0.4146270751953125;-0.4328155517578125;-1.10736083984375;
2024-10-12 23:19:31;1728764406.333216;faceUp;0.2959136962890625;-0.4508514404296875;-1.5301361083984375;
2024-10-12 23:19:31;1728764406.38337;faceUp;0.307952880859375;-0.3297576904296875;-1.6359405517578125;
2024-10-12 23:19:31;1728764406.433385;faceUp;-0.314910888671875;0.024169921875;-1.89013671875;
2024-10-12 23:19:31;1728764406.482572;faceUp;-0.225860595703125;-0.0566253662109375;-0.9859771728515625;
2024-10-12 23:19:31;1728764406.5340981;faceUp;-0.3891143798828125;0.0426025390625;-0.702606201171875;
2024-10-12 23:19:31;1728764406.583538;faceUp;-0.1227569580078125;-0.1377716064453125;-0.5692138671875;
2024-10-12 23:19:31;1728764406.632432;faceUp;-0.5215301513671875;-0.274200439453125;-0.8747406005859375;
2024-10-12 23:19:31;1728764406.6854892;faceUp;-0.245635986328125;-0.4600677490234375;-0.57867431640625;
2024-10-12 23:19:31;1728764406.732514;faceUp;-0.101654052734375;-0.9012603759765625;-0.6377105712890625;
2024-10-12 23:19:31;1728764406.7741752;faceUp;0.06256103515625;-1.112640380859375;-0.7486114501953125;
2024-10-12 23:19:31;1728764406.83208;portrait;0.029510498046875;-0.825225830078125;-0.6806793212890625;
2024-10-12 23:19:31;1728764406.882701;portrait;-0.1591949462890625;-0.4017486572265625;-0.574554443359375;
2024-10-12 23:19:31;1728764406.93149;portrait;0.004119873046875;-0.449371337890625;-0.598236083984375;
2024-10-12 23:19:31;1728764406.9818459;portrait;-0.3014068603515625;-0.288116455078125;-1.14990234375;
2024-10-12 23:19:31;1728764407.032201;portrait;-0.223846435546875;-0.147186279296875;-0.860321044921875;
2024-10-12 23:19:31;1728764407.0740008;portrait;-0.21209716796875;-0.456298828125;-1.1721343994140625;
2024-10-12 23:19:31;1728764407.1227279;faceUp;-0.401885986328125;-0.17474365234375;-1.345794677734375;
2024-10-12 23:19:31;1728764407.181394;faceUp;-0.262115478515625;-0.2870025634765625;-0.91473388671875;
2024-10-12 23:19:31;1728764407.2309241;faceUp;-0.2912139892578125;-0.3502960205078125;-0.7169342041015625;
2024-10-12 23:19:31;1728764407.281723;faceUp;-0.3062591552734375;-0.222564697265625;-0.6324615478515625;
2024-10-12 23:19:31;1728764407.331687;faceUp;-0.4106903076171875;-0.438751220703125;-0.875701904296875;
2024-10-12 23:19:31;1728764407.3797898;faceUp;0.0197601318359375;-0.653228759765625;-1.1728973388671875;
2024-10-12 23:19:31;1728764407.429699;faceUp;-0.4319000244140625;-0.614166259765625;-1.4973602294921875;
2024-10-12 23:19:31;1728764407.480492;faceUp;0.1148223876953125;-0.813446044921875;-0.972869873046875;
2024-10-12 23:19:31;1728764407.5223231;faceUp;0.140289306640625;-0.5545196533203125;-0.48822021484375;
2024-10-12 23:19:31;1728764407.582144;faceUp;0.0834503173828125;-0.22198486328125;-0.2930908203125;
2024-10-12 23:19:31;1728764407.629684;faceUp;0.15252685546875;-0.4078521728515625;-0.753082275390625;
2024-10-12 23:19:31;1728764407.680891;faceUp;0.0998077392578125;-0.329376220703125;-1.0283660888671875;
2024-10-12 23:19:31;1728764407.731134;faceUp;0.251983642578125;-0.387786865234375;-1.3519744873046875;
2024-10-12 23:19:31;1728764407.7803612;faceUp;0.2056121826171875;-0.1403656005859375;-1.2556304931640625;
2024-10-12 23:19:31;1728764407.829049;faceUp;-0.1889190673828125;-0.002471923828125;-1.0246124267578125;
2024-10-12 23:19:31;1728764407.880886;faceUp;-0.2496795654296875;0.0298309326171875;-0.5949859619140625;
2024-10-12 23:19:31;1728764407.929675;faceUp;-0.2719268798828125;-0.179443359375;-0.61956787109375;
2024-10-12 23:19:31;1728764407.977394;faceUp;-0.135650634765625;-0.423919677734375;-0.9297332763671875;
2024-10-12 23:19:31;1728764408.0292869;faceUp;-0.1519317626953125;-0.3099517822265625;-1.37322998046875;
2024-10-12 23:19:31;1728764408.077204;faceUp;-0.0141754150390625;-0.4639892578125;-1.2427520751953125;
2024-10-12 23:19:31;1728764408.1292648;faceUp;0.0632171630859375;-0.5619354248046875;-0.9694366455078125;
2024-10-12 23:19:31;1728764408.177697;faceUp;0.116851806640625;-0.4762115478515625;-0.64825439453125;
2024-10-12 23:19:31;1728764408.226902;faceUp;0.143829345703125;-0.443267822265625;-0.2683563232421875;
2024-10-12 23:19:31;1728764408.2798882;faceUp;0.287200927734375;-0.4948272705078125;-0.61529541015625;
2024-10-12 23:19:31;1728764408.32931;faceUp;0.316558837890625;-0.5488128662109375;-1.304779052734375;
2024-10-12 23:19:31;1728764408.3785229;faceUp;0.1044921875;-0.27984619140625;-1.5028076171875;
2024-10-12 23:19:31;1728764408.4275432;faceUp;-0.0711822509765625;-0.2566070556640625;-1.483489990234375;
2024-10-12 23:19:31;1728764408.470636;faceUp;-0.2269439697265625;-0.0063018798828125;-0.8543701171875;
2024-10-12 23:19:31;1728764408.528868;faceUp;-0.3319854736328125;-0.0593109130859375;-0.5103912353515625;
2024-10-12 23:19:31;1728764408.578098;faceUp;-0.3964080810546875;-0.09173583984375;-0.2833404541015625;
2024-10-12 23:19:31;1728764408.627553;faceUp;-0.320648193359375;-0.3410797119140625;-0.93157958984375;
2024-10-12 23:19:31;1728764408.678174;faceUp;-0.3775482177734375;-0.2669525146484375;-1.0233001708984375;
2024-10-12 23:19:31;1728764408.728345;faceUp;0.0947723388671875;-0.69549560546875;-1.2218780517578125;
2024-10-12 23:19:31;1728764408.778152;faceUp;0.0379486083984375;-0.5865478515625;-1.1575469970703125;
2024-10-12 23:19:31;1728764408.8197942;faceUp;0.03875732421875;-0.454742431640625;-1.1201934814453125;
2024-10-12 23:19:31;1728764408.879023;faceUp;0.0802001953125;-0.34820556640625;-0.557647705078125;
2024-10-12 23:19:31;1728764408.927257;faceUp;0.1295166015625;-0.340179443359375;-0.4986419677734375;
2024-10-12 23:19:31;1728764408.977243;faceUp;0.2773284912109375;-0.420013427734375;-0.5192413330078125;
2024-10-12 23:19:31;1728764409.0278978;faceUp;0.5258331298828125;-0.6515960693359375;-1.306427001953125;
2024-10-12 23:19:31;1728764409.069129;faceUp;0.1809234619140625;-0.3135833740234375;-1.7649383544921875;
2024-10-12 23:19:31;1728764409.125272;faceUp;0.04693603515625;-0.14996337890625;-1.492828369140625;
2024-10-12 23:19:31;1728764409.1767302;faceUp;-0.0156402587890625;-0.04193115234375;-0.8618927001953125;
2024-10-12 23:19:31;1728764409.2198892;faceUp;-0.2502288818359375;-0.12762451171875;-0.440277099609375;
2024-10-12 23:19:31;1728764409.268678;faceUp;-0.0813446044921875;-0.18902587890625;-0.6795196533203125;
2024-10-12 23:19:31;1728764409.319906;faceUp;-0.1228485107421875;-0.2602691650390625;-0.678375244140625;
2024-10-12 23:19:31;1728764409.369658;faceUp;0.0397186279296875;-0.4560394287109375;-1.12139892578125;
2024-10-12 23:19:31;1728764409.419699;faceUp;0.0046234130859375;-0.6031951904296875;-1.414764404296875;
2024-10-12 23:19:31;1728764409.469094;faceUp;0.0496368408203125;-0.6275482177734375;-1.0096588134765625;
2024-10-12 23:19:31;1728764409.51931;faceUp;0.161468505859375;-0.7759857177734375;-0.735992431640625;
2024-10-12 23:19:31;1728764409.5693069;faceUp;0.048583984375;-0.4079132080078125;-0.4402923583984375;
2024-10-12 23:19:31;1728764409.619813;portrait;0.4407958984375;-0.4785614013671875;-0.5311431884765625;
2024-10-12 23:19:31;1728764409.669355;portrait;0.3512115478515625;-0.2637939453125;-0.9687957763671875;
2024-10-12 23:19:31;1728764409.7184892;portrait;0.4439849853515625;-0.5768890380859375;-1.3964080810546875;
2024-10-12 23:19:31;1728764409.769012;portrait;0.3098602294921875;-0.3590240478515625;-1.4957733154296875;
2024-10-12 23:19:31;1728764409.818633;portrait;0.0891265869140625;-0.1999664306640625;-1.3688201904296875;
2024-10-12 23:19:31;1728764409.8686662;portrait;-0.11492919921875;-0.0636749267578125;-0.8318023681640625;
2024-10-12 23:19:31;1728764409.9185;portrait;-0.3280029296875;-0.0864715576171875;-0.4514617919921875;
2024-10-12 23:19:31;1728764409.968402;portrait;-0.616790771484375;-0.089111328125;-0.49359130859375;
2024-10-12 23:19:31;1728764410.0183449;portrait;0.0215301513671875;-0.152984619140625;-0.1716461181640625;
2024-10-12 23:19:31;1728764410.069365;portrait;0.2346038818359375;-1.1665496826171875;-1.5015869140625;
2024-10-12 23:19:31;1728764410.118279;portrait;0.1250762939453125;-0.6964874267578125;-1.459320068359375;
2024-10-12 23:19:31;1728764410.168086;portrait;0.275909423828125;-1.0828399658203125;-1.3775634765625;
2024-10-12 23:19:31;1728764410.218204;portrait;0.1015472412109375;-0.6240692138671875;-0.90753173828125;
2024-10-12 23:19:31;1728764410.268055;portrait;0.0633544921875;-0.344512939453125;-0.4204864501953125;
2024-10-12 23:19:31;1728764410.322721;portrait;0.1223297119140625;-0.2340545654296875;-0.720123291015625;
2024-10-12 23:19:31;1728764410.372082;portrait;0.5848846435546875;-0.493011474609375;-0.848419189453125;
2024-10-12 23:19:31;1728764410.423705;portrait;0.329010009765625;-0.2937774658203125;-1.2680816650390625;
2024-10-12 23:19:31;1728764410.4672241;portrait;0.36407470703125;-0.4802703857421875;-1.1483917236328125;
2024-10-12 23:19:31;1728764410.523664;portrait;-0.0780487060546875;-0.1441650390625;-1.231964111328125;
2024-10-12 23:19:31;1728764410.5737271;portrait;-0.267913818359375;-0.007080078125;-0.7746429443359375;
2024-10-12 23:19:31;1728764410.617272;portrait;-0.5191802978515625;-0.0403289794921875;-0.37689208984375;
2024-10-12 23:19:31;1728764410.6733642;portrait;-0.30426025390625;-0.1370697021484375;-0.556304931640625;
2024-10-12 23:19:31;1728764410.723356;portrait;-0.0680084228515625;-0.563232421875;-1.1946258544921875;
2024-10-12 23:19:31;1728764410.771428;portrait;0.226043701171875;-0.52520751953125;-1.2575225830078125;
2024-10-12 23:19:31;1728764410.8232288;faceUp;0.0863800048828125;-0.599395751953125;-1.4934234619140625;
2024-10-12 23:19:31;1728764410.873419;faceUp;0.30145263671875;-0.586639404296875;-1.0245208740234375;
2024-10-12 23:19:31;1728764410.916012;faceUp;0.1541595458984375;-0.33294677734375;-0.5902557373046875;
2024-10-12 23:19:31;1728764410.973125;faceUp;0.3205413818359375;-0.3545074462890625;-0.584808349609375;
2024-10-12 23:19:31;1728764411.022784;faceUp;0.0579833984375;-0.244659423828125;-0.8516082763671875;
2024-10-12 23:19:31;1728764411.069246;faceUp;0.388214111328125;-0.47088623046875;-1.157501220703125;
2024-10-12 23:19:31;1728764411.122289;faceUp;0.293792724609375;-0.4503173828125;-1.2841796875;
2024-10-12 23:19:31;1728764411.1733341;faceUp;-0.23089599609375;-0.1326751708984375;-1.4595947265625;
2024-10-12 23:19:31;1728764411.222939;faceUp;-0.053863525390625;-0.0212860107421875;-0.8619842529296875;
2024-10-12 23:19:31;1728764411.272822;faceUp;-0.232666015625;-0.0713958740234375;-0.5240020751953125;
2024-10-12 23:19:31;1728764411.316741;faceUp;-0.172210693359375;-0.1484527587890625;-0.6103057861328125;
2024-10-12 23:19:31;1728764411.372867;faceUp;-0.245025634765625;-0.2970733642578125;-0.8116607666015625;
2024-10-12 23:19:31;1728764411.420301;faceUp;0.1409149169921875;-0.3560333251953125;-1.2676239013671875;
2024-10-12 23:19:31;1728764411.475785;faceUp;0.18304443359375;-0.4735565185546875;-1.2588653564453125;
2024-10-12 23:19:31;1728764411.52372;faceUp;0.030303955078125;-0.5875396728515625;-1.181549072265625;
2024-10-12 23:19:31;1728764411.572233;faceUp;0.0970306396484375;-0.620086669921875;-0.8119659423828125;
2024-10-12 23:19:31;1728764411.623385;faceUp;-0.0001983642578125;-0.5031280517578125;-0.634185791015625;
2024-10-12 23:19:31;1728764411.666116;portrait;0.00909423828125;-0.284881591796875;-0.7732086181640625;
2024-10-12 23:19:31;1728764411.7233238;portrait;-0.0946044921875;-0.228515625;-0.7470550537109375;
2024-10-12 23:19:31;1728764411.773185;portrait;0.145660400390625;-0.4792938232421875;-0.90277099609375;
2024-10-12 23:19:31;1728764411.821671;faceUp;-0.24530029296875;-0.2330322265625;-1.367034912109375;
2024-10-12 23:19:31;1728764411.872673;faceUp;0.0636444091796875;-0.3411102294921875;-1.18585205078125;
2024-10-12 23:19:31;1728764411.913657;faceUp;-0.08746337890625;-0.133392333984375;-1.4665985107421875;
2024-10-12 23:19:31;1728764411.973033;faceUp;-0.0943603515625;-0.111572265625;-1.1414642333984375;
2024-10-12 23:19:31;1728764412.021934;faceUp;0.1327972412109375;-0.310546875;-0.8002166748046875;
2024-10-12 23:19:31;1728764412.0723882;faceUp;-0.025482177734375;-0.1116943359375;-0.6926727294921875;
2024-10-12 23:19:31;1728764412.120936;faceUp;-0.061492919921875;-0.174713134765625;-0.6273651123046875;
2024-10-12 23:19:31;1728764412.1720529;faceUp;0.1027679443359375;-0.4632568359375;-0.7276153564453125;
2024-10-12 23:19:31;1728764412.2130399;faceUp;0.0678558349609375;-0.4134674072265625;-1.0368499755859375;
2024-10-12 23:19:31;1728764412.2717109;faceUp;0.057373046875;-0.2765960693359375;-1.14959716796875;
2024-10-12 23:19:31;1728764412.321459;faceUp;0.178497314453125;-0.3705596923828125;-0.901031494140625;
2024-10-12 23:19:31;1728764412.3698;faceUp;0.0652618408203125;-0.3734283447265625;-0.78118896484375;
2024-10-12 23:19:31;1728764412.421016;faceUp;0.0692291259765625;-0.32806396484375;-0.647491455078125;
2024-10-12 23:19:31;1728764412.470231;faceUp;0.2452545166015625;-0.3934173583984375;-0.6927490234375;
2024-10-12 23:19:31;1728764412.521287;faceUp;0.1441192626953125;-0.2878875732421875;-0.7758941650390625;
2024-10-12 23:19:31;1728764412.5708451;faceUp;0.2490997314453125;-0.39202880859375;-0.866607666015625;
2024-10-12 23:19:31;1728764412.6135678;faceUp;0.087982177734375;-0.3490142822265625;-0.9071807861328125;
2024-10-12 23:19:31;1728764412.663209;faceUp;0.050445556640625;-0.3464813232421875;-1.0551910400390625;
