Date;Timestamp;DeviceOrientation;AccelerationX;AccelerationY;AccelerationZ;Label
2024-10-12 23:15:40;1728764140.284929;faceUp;-0.010162353515625;-0.0074005126953125;-1.0183563232421875;
2024-10-12 23:15:40;1728764140.285644;faceUp;-0.0106353759765625;-0.002655029296875;-0.9909820556640625;
2024-10-12 23:15:40;1728764140.295109;faceUp;-0.0046844482421875;0.0046234130859375;-0.9979095458984375;
2024-10-12 23:15:40;1728764140.3451;faceUp;-0.004638671875;-0.005828857421875;-0.9883880615234375;
2024-10-12 23:15:40;1728764140.3951259;faceUp;-0.0039825439453125;0.0039520263671875;-1.01446533203125;
2024-10-12 23:15:40;1728764140.4450722;faceUp;0.028778076171875;0.01971435546875;-1.037200927734375;
2024-10-12 23:15:40;1728764140.495008;faceUp;-0.0419921875;-0.0234527587890625;-0.963653564453125;
2024-10-12 23:15:40;1728764140.544759;faceUp;-0.021728515625;0.01300048828125;-1.029632568359375;
2024-10-12 23:15:40;1728764140.5950708;faceUp;-0.00323486328125;0.0026092529296875;-0.961334228515625;
2024-10-12 23:15:40;1728764140.6449962;faceUp;-0.00372314453125;-0.0078125;-1.0031585693359375;
2024-10-12 23:15:40;1728764140.6946359;faceUp;-0.022247314453125;0.0026092529296875;-1.009521484375;
2024-10-12 23:15:40;1728764140.744738;faceUp;-0.02288818359375;-0.0041351318359375;-0.9888458251953125;
2024-10-12 23:15:40;1728764140.794271;faceUp;-0.0060882568359375;-0.0013427734375;-0.997467041015625;
2024-10-12 23:15:40;1728764140.844482;faceUp;0.0026092529296875;-0.001678466796875;-0.99951171875;
2024-10-12 23:15:40;1728764140.894322;faceUp;-0.0091400146484375;-0.0007781982421875;-0.999267578125;
2024-10-12 23:15:40;1728764140.944141;faceUp;-0.0139617919921875;-0.0036773681640625;-0.991424560546875;
2024-10-12 23:15:40;1728764140.994118;faceUp;-0.0095062255859375;-0.008636474609375;-1.00347900390625;
2024-10-12 23:15:40;1728764141.044214;faceUp;-0.015472412109375;-0.00335693359375;-0.994476318359375;
2024-10-12 23:15:40;1728764141.093894;faceUp;-0.0178680419921875;0.0022430419921875;-0.998443603515625;
2024-10-12 23:15:40;1728764141.143931;faceUp;-0.01727294921875;0.0033721923828125;-0.9953460693359375;
2024-10-12 23:15:40;1728764141.193664;faceUp;-0.011444091796875;-0.00701904296875;-0.993072509765625;
2024-10-12 23:15:40;1728764141.2438369;faceUp;-0.000335693359375;-0.0017242431640625;-0.9942626953125;
2024-10-12 23:15:40;1728764141.293668;faceUp;-3.0517578125e-05;-0.000762939453125;-1.000091552734375;
2024-10-12 23:15:40;1728764141.343903;faceUp;-0.011749267578125;-0.0040130615234375;-1.0002288818359375;
2024-10-12 23:15:40;1728764141.3932939;faceUp;-0.00909423828125;-0.000335693359375;-0.992340087890625;
2024-10-12 23:15:40;1728764141.4435759;faceUp;-0.009857177734375;-0.0001220703125;-0.998077392578125;
2024-10-12 23:15:40;1728764141.493071;faceUp;-0.006683349609375;-0.00439453125;-1.00201416015625;
2024-10-12 23:15:40;1728764141.543826;faceUp;0.0020904541015625;-0.0010528564453125;-0.9976959228515625;
2024-10-12 23:15:40;1728764141.5930982;faceUp;0.00274658203125;-0.0021209716796875;-0.99932861328125;
2024-10-12 23:15:40;1728764141.6443229;faceUp;-0.0087738037109375;-0.00482177734375;-0.9995880126953125;
2024-10-12 23:15:40;1728764141.693049;faceUp;-0.0092926025390625;0.0097808837890625;-0.9970550537109375;
2024-10-12 23:15:40;1728764141.743058;faceUp;-0.00286865234375;0.0042877197265625;-0.9921722412109375;
2024-10-12 23:15:40;1728764141.792599;faceUp;0.0042877197265625;-0.0072021484375;-1.0001373291015625;
2024-10-12 23:15:40;1728764141.843841;faceUp;-0.002655029296875;-0.01031494140625;-0.99822998046875;
2024-10-12 23:15:40;1728764141.89376;faceUp;0.0021209716796875;-0.014617919921875;-0.9986572265625;
2024-10-12 23:15:40;1728764141.943182;faceUp;0.0070343017578125;0.0111236572265625;-0.9942779541015625;
2024-10-12 23:15:40;1728764141.991992;faceUp;-0.017181396484375;-0.0037689208984375;-1.0027923583984375;
2024-10-12 23:15:40;1728764142.041861;faceUp;-0.019775390625;0.001556396484375;-0.99102783203125;
2024-10-12 23:15:40;1728764142.0929;faceUp;-0.0023345947265625;0.0050506591796875;-0.9938201904296875;
2024-10-12 23:15:40;1728764142.141886;faceUp;0.005889892578125;-0.0162811279296875;-1.002532958984375;
2024-10-12 23:15:40;1728764142.193064;faceUp;-0.00250244140625;-0.00634765625;-0.9914398193359375;
2024-10-12 23:15:40;1728764142.2417169;faceUp;-0.0092010498046875;0.001007080078125;-0.9993133544921875;
2024-10-12 23:15:40;1728764142.2915401;faceUp;-0.00909423828125;0.0053253173828125;-0.996185302734375;
2024-10-12 23:15:40;1728764142.341491;faceUp;-0.0061798095703125;-0.001861572265625;-0.9962310791015625;
2024-10-12 23:15:40;1728764142.3929548;faceUp;-0.0088043212890625;-0.003753662109375;-0.99755859375;
2024-10-12 23:15:40;1728764142.44136;faceUp;-0.0089874267578125;-0.006683349609375;-0.9962005615234375;
2024-10-12 23:15:40;1728764142.4931622;faceUp;-0.006866455078125;-0.0037384033203125;-0.9922637939453125;
2024-10-12 23:15:40;1728764142.541203;faceUp;0.0007476806640625;-0.00048828125;-1.001251220703125;
2024-10-12 23:15:40;1728764142.590966;faceUp;0.0011749267578125;-0.0011138916015625;-0.995208740234375;
2024-10-12 23:15:40;1728764142.640894;faceUp;-0.0062408447265625;-0.0022735595703125;-0.9938507080078125;
2024-10-12 23:15:40;1728764142.690868;faceUp;-0.0122528076171875;-0.00836181640625;-1.0017852783203125;
2024-10-12 23:15:40;1728764142.740953;faceUp;-0.014007568359375;0.00042724609375;-0.995452880859375;
2024-10-12 23:15:40;1728764142.790866;faceUp;-0.01055908203125;-0.000518798828125;-0.992828369140625;
2024-10-12 23:15:40;1728764142.840712;faceUp;-0.0023345947265625;-0.0090789794921875;-1.0009765625;
2024-10-12 23:15:40;1728764142.8905811;faceUp;-0.0016326904296875;-0.0011749267578125;-0.9951324462890625;
2024-10-12 23:15:40;1728764142.940325;faceUp;-0.004241943359375;-0.0070953369140625;-0.996551513671875;
2024-10-12 23:15:40;1728764142.990382;faceUp;-0.003997802734375;-0.0050506591796875;-1.00048828125;
2024-10-12 23:15:40;1728764143.0401201;faceUp;-0.0035858154296875;0.0013275146484375;-0.9983367919921875;
2024-10-12 23:15:40;1728764143.0904021;faceUp;-0.0098724365234375;0.00067138671875;-0.9962158203125;
2024-10-12 23:15:40;1728764143.140033;faceUp;-0.009521484375;-0.001922607421875;-0.996612548828125;
2024-10-12 23:15:40;1728764143.189859;faceUp;-0.0102691650390625;-0.0061492919921875;-0.9958953857421875;
2024-10-12 23:15:40;1728764143.2398329;faceUp;-0.00482177734375;-0.00115966796875;-0.9974212646484375;
2024-10-12 23:15:40;1728764143.289779;faceUp;-0.006683349609375;-0.0023345947265625;-0.9941864013671875;
2024-10-12 23:15:40;1728764143.339668;faceUp;-0.00286865234375;-0.001739501953125;-0.9992523193359375;
2024-10-12 23:15:40;1728764143.389581;faceUp;-0.0061492919921875;-0.0013885498046875;-0.9980010986328125;
2024-10-12 23:15:40;1728764143.439736;faceUp;-0.00244140625;-0.0037078857421875;-0.9921722412109375;
2024-10-12 23:15:40;1728764143.48931;faceUp;-0.0059051513671875;-0.0050048828125;-1.005950927734375;
2024-10-12 23:15:40;1728764143.539196;faceUp;-0.0048065185546875;-0.0046234130859375;-0.9870758056640625;
2024-10-12 23:15:40;1728764143.589165;faceUp;-0.0010986328125;-0.002593994140625;-1.006378173828125;
2024-10-12 23:15:40;1728764143.63903;faceUp;-0.0044097900390625;-0.0047607421875;-0.9976348876953125;
2024-10-12 23:15:40;1728764143.6892881;faceUp;-0.001190185546875;-0.0096435546875;-0.9910430908203125;
2024-10-12 23:15:40;1728764143.739077;faceUp;-0.0001678466796875;-0.0016326904296875;-0.99945068359375;
2024-10-12 23:15:40;1728764143.788882;faceUp;-0.008544921875;-0.0007781982421875;-0.9969482421875;
2024-10-12 23:15:40;1728764143.838804;faceUp;-0.0125274658203125;-0.0006256103515625;-0.993316650390625;
2024-10-12 23:15:40;1728764143.888764;faceUp;-0.008087158203125;-0.001861572265625;-0.996490478515625;
2024-10-12 23:15:40;1728764143.938805;faceUp;-0.0001678466796875;-0.00103759765625;-0.997283935546875;
2024-10-12 23:15:40;1728764143.9885569;faceUp;-0.0028533935546875;-0.0070343017578125;-0.9928436279296875;
2024-10-12 23:15:40;1728764144.0383902;faceUp;-0.0069580078125;-0.0065460205078125;-1.0028839111328125;
2024-10-12 23:15:40;1728764144.088193;faceUp;-0.002105712890625;-0.002777099609375;-1.0025482177734375;
2024-10-12 23:15:40;1728764144.138134;faceUp;-0.0037841796875;-0.0035400390625;-0.993988037109375;
2024-10-12 23:15:40;1728764144.188047;faceUp;-0.0030059814453125;-0.003021240234375;-0.9968109130859375;
2024-10-12 23:15:40;1728764144.238025;faceUp;-0.0086822509765625;0.001617431640625;-0.9994659423828125;
2024-10-12 23:15:40;1728764144.287894;faceUp;-0.0089111328125;-0.006195068359375;-0.9938201904296875;
2024-10-12 23:15:40;1728764144.337713;faceUp;-0.0045928955078125;-0.0064544677734375;-0.99627685546875;
2024-10-12 23:15:40;1728764144.387632;faceUp;-0.0065460205078125;0.0039520263671875;-0.9977569580078125;
2024-10-12 23:15:40;1728764144.437642;faceUp;-0.005279541015625;-0.002716064453125;-0.9943389892578125;
2024-10-12 23:15:40;1728764144.487308;faceUp;-0.004425048828125;-0.004852294921875;-1.001251220703125;
2024-10-12 23:15:40;1728764144.53737;faceUp;-0.006500244140625;-0.000640869140625;-0.996429443359375;
2024-10-12 23:15:40;1728764144.5872378;faceUp;-0.0042572021484375;-0.0102386474609375;-0.9944610595703125;
2024-10-12 23:15:40;1728764144.637064;faceUp;-0.0056304931640625;-0.0018768310546875;-1.0014190673828125;
2024-10-12 23:15:40;1728764144.686816;faceUp;-0.005218505859375;-0.0010528564453125;-0.9915008544921875;
2024-10-12 23:15:40;1728764144.736824;faceUp;-0.0063629150390625;-0.0069427490234375;-0.9979248046875;
2024-10-12 23:15:40;1728764144.7867842;faceUp;-0.0030364990234375;-0.0025482177734375;-0.9990692138671875;
2024-10-12 23:15:40;1728764144.836872;faceUp;-0.006439208984375;0.0009613037109375;-0.9929046630859375;
2024-10-12 23:15:40;1728764144.886664;faceUp;-0.0091705322265625;-0.007476806640625;-1.00225830078125;
2024-10-12 23:15:40;1728764144.936446;faceUp;-0.0040435791015625;-0.0029449462890625;-0.9935150146484375;
2024-10-12 23:15:40;1728764144.986517;faceUp;-0.007781982421875;0.0006103515625;-0.996337890625;
2024-10-12 23:15:40;1728764145.0364652;faceUp;-0.008148193359375;-0.00262451171875;-0.997772216796875;
2024-10-12 23:15:40;1728764145.086067;faceUp;-0.004119873046875;-0.0029296875;-0.9956207275390625;
2024-10-12 23:15:40;1728764145.1363711;faceUp;-0.002960205078125;-0.0053863525390625;-0.9970550537109375;
2024-10-12 23:15:40;1728764145.1859221;faceUp;-0.00494384765625;-0.0048980712890625;-0.9987030029296875;
2024-10-12 23:15:40;1728764145.235843;faceUp;-0.001251220703125;0.0005645751953125;-0.992401123046875;
2024-10-12 23:15:40;1728764145.2857141;faceUp;-0.0040283203125;-0.0071258544921875;-0.9998321533203125;
2024-10-12 23:15:40;1728764145.33582;faceUp;-0.00762939453125;-0.0035400390625;-0.994842529296875;
2024-10-12 23:15:40;1728764145.385494;faceUp;-0.011260986328125;-0.003509521484375;-0.996063232421875;
2024-10-12 23:15:40;1728764145.435526;faceUp;-0.0014495849609375;-0.0006561279296875;-0.99896240234375;
2024-10-12 23:15:40;1728764145.485172;faceUp;-0.00250244140625;-0.0008087158203125;-0.9946746826171875;
2024-10-12 23:15:40;1728764145.535356;faceUp;-0.0052490234375;-0.0045318603515625;-0.9969024658203125;
2024-10-12 23:15:40;1728764145.58533;faceUp;-0.0042572021484375;-0.0052337646484375;-0.999725341796875;
2024-10-12 23:15:40;1728764145.635282;faceUp;-0.0040435791015625;-0.0044097900390625;-0.9930877685546875;
2024-10-12 23:15:40;1728764145.684938;faceUp;-0.00274658203125;-0.0045928955078125;-1.00225830078125;
2024-10-12 23:15:40;1728764145.73494;faceUp;0.000701904296875;-0.0121917724609375;-0.9969482421875;
2024-10-12 23:15:40;1728764145.7847838;faceUp;0.0032501220703125;-0.0025634765625;-0.996856689453125;
2024-10-12 23:15:40;1728764145.834752;faceUp;-0.0030670166015625;-0.00408935546875;-0.993560791015625;
2024-10-12 23:15:40;1728764145.884556;faceUp;-0.01287841796875;-0.0034332275390625;-0.999053955078125;
2024-10-12 23:15:40;1728764145.9345942;faceUp;-0.0106048583984375;-7.62939453125e-05;-0.988616943359375;
2024-10-12 23:15:40;1728764145.984353;faceUp;-0.013885498046875;-0.0019989013671875;-0.99627685546875;
2024-10-12 23:15:40;1728764146.034484;faceUp;-0.003082275390625;0.004364013671875;-1.00189208984375;
2024-10-12 23:15:40;1728764146.084148;faceUp;0.000640869140625;0.0010223388671875;-0.9906158447265625;
2024-10-12 23:15:40;1728764146.1341429;faceUp;-0.002532958984375;-0.00775146484375;-0.996429443359375;
2024-10-12 23:15:40;1728764146.183941;faceUp;-0.0018768310546875;-0.012481689453125;-0.9992523193359375;
2024-10-12 23:15:40;1728764146.2339091;faceUp;-0.00372314453125;-0.006072998046875;-1.0038909912109375;
2024-10-12 23:15:40;1728764146.286415;faceUp;0.0037994384765625;0.002532958984375;-0.9951629638671875;
2024-10-12 23:15:40;1728764146.3337998;faceUp;0.006378173828125;-0.001007080078125;-0.995391845703125;
2024-10-12 23:15:40;1728764146.383617;faceUp;-0.0049591064453125;-0.0074005126953125;-1.0005950927734375;
2024-10-12 23:15:40;1728764146.433701;faceUp;-0.009368896484375;-0.0057830810546875;-0.9940032958984375;
2024-10-12 23:15:40;1728764146.483604;faceUp;-0.0035400390625;0.000335693359375;-0.9964752197265625;
2024-10-12 23:15:40;1728764146.533392;faceUp;-0.006622314453125;-0.0019989013671875;-0.9947662353515625;
2024-10-12 23:15:40;1728764146.583243;faceUp;-0.0068817138671875;0.0014495849609375;-1.0034027099609375;
2024-10-12 23:15:40;1728764146.633765;faceUp;-0.002899169921875;1.52587890625e-05;-0.9912261962890625;
2024-10-12 23:15:40;1728764146.683516;faceUp;-0.0008544921875;-0.0074462890625;-0.997467041015625;
2024-10-12 23:15:40;1728764146.733242;faceUp;-0.0042266845703125;-0.006317138671875;-0.999755859375;
2024-10-12 23:15:40;1728764146.783268;faceUp;-0.0012054443359375;0.00067138671875;-0.99468994140625;
2024-10-12 23:15:40;1728764146.8332028;faceUp;0.0014190673828125;-0.0026397705078125;-0.995361328125;
2024-10-12 23:15:40;1728764146.883486;faceUp;0.0046234130859375;-0.0015869140625;-0.999908447265625;
2024-10-12 23:15:40;1728764146.933604;faceUp;-0.0039215087890625;-0.003448486328125;-0.99700927734375;
2024-10-12 23:15:40;1728764146.9835029;faceUp;-0.0059814453125;-0.0022430419921875;-0.9963531494140625;
2024-10-12 23:15:40;1728764147.033064;faceUp;0.0004119873046875;0.002838134765625;-0.9933319091796875;
2024-10-12 23:15:40;1728764147.083235;faceUp;-0.002685546875;-0.006561279296875;-1.0001220703125;
2024-10-12 23:15:40;1728764147.133395;faceUp;-0.0163421630859375;-0.00714111328125;-0.9970855712890625;
2024-10-12 23:15:40;1728764147.1833959;faceUp;-0.001953125;-0.002471923828125;-0.9929046630859375;
2024-10-12 23:15:40;1728764147.233546;faceUp;0.00140380859375;-0.0083465576171875;-1.0014801025390625;
2024-10-12 23:15:40;1728764147.281832;faceUp;0.0025482177734375;0.0007781982421875;-0.99755859375;
2024-10-12 23:15:40;1728764147.333175;faceUp;0.00054931640625;0.0035858154296875;-0.9935760498046875;
2024-10-12 23:15:40;1728764147.381685;faceUp;0.0002288818359375;-0.0098876953125;-0.9978179931640625;
2024-10-12 23:15:40;1728764147.431649;faceUp;-0.0094146728515625;-0.0045928955078125;-0.9989013671875;
2024-10-12 23:15:40;1728764147.481538;faceUp;-0.0083160400390625;0.0087890625;-0.9930267333984375;
2024-10-12 23:15:40;1728764147.531612;faceUp;0.0008087158203125;-0.00103759765625;-0.9983673095703125;
2024-10-12 23:15:40;1728764147.581244;faceUp;-0.0029296875;-0.006591796875;-0.99847412109375;
2024-10-12 23:15:40;1728764147.631314;faceUp;-0.002410888671875;-0.0045318603515625;-0.99542236328125;
2024-10-12 23:15:40;1728764147.681034;faceUp;0.000457763671875;-0.0044403076171875;-0.9983062744140625;
2024-10-12 23:15:40;1728764147.730964;faceUp;0.0008392333984375;0.0019683837890625;-0.9972991943359375;
2024-10-12 23:15:40;1728764147.78071;faceUp;-0.0081939697265625;-0.0013275146484375;-0.9956207275390625;
2024-10-12 23:15:40;1728764147.830639;faceUp;-0.0063934326171875;-0.0023040771484375;-0.996917724609375;
2024-10-12 23:15:40;1728764147.88068;faceUp;-0.0007781982421875;-0.0019683837890625;-0.997894287109375;
2024-10-12 23:15:40;1728764147.9306378;faceUp;-0.006561279296875;-0.0041656494140625;-0.9962310791015625;
2024-10-12 23:15:40;1728764147.980159;faceUp;7.62939453125e-05;-0.0073394775390625;-0.9984893798828125;
2024-10-12 23:15:40;1728764148.03028;faceUp;-0.00067138671875;0.000946044921875;-0.9967041015625;
2024-10-12 23:15:40;1728764148.080326;faceUp;-0.00811767578125;-0.004058837890625;-0.9969940185546875;
2024-10-12 23:15:40;1728764148.1303;faceUp;-0.006927490234375;-0.0025482177734375;-0.9973602294921875;
2024-10-12 23:15:40;1728764148.18009;faceUp;-0.0036773681640625;-0.0027313232421875;-0.9981536865234375;
2024-10-12 23:15:40;1728764148.23003;faceUp;-0.0041656494140625;-0.003997802734375;-0.996551513671875;
2024-10-12 23:15:40;1728764148.279799;faceUp;-0.00421142578125;-0.0063323974609375;-0.997589111328125;
2024-10-12 23:15:40;1728764148.329896;faceUp;-0.0047454833984375;-0.000457763671875;-0.9972991943359375;
2024-10-12 23:15:40;1728764148.379607;faceUp;-0.002471923828125;-0.0009765625;-0.9945220947265625;
2024-10-12 23:15:40;1728764148.42976;faceUp;-0.006378173828125;-0.0009613037109375;-0.9986114501953125;
2024-10-12 23:15:40;1728764148.479498;faceUp;-0.006134033203125;-0.0016937255859375;-0.9948272705078125;
2024-10-12 23:15:40;1728764148.52955;faceUp;-0.0057220458984375;-0.0059967041015625;-0.99945068359375;
2024-10-12 23:15:40;1728764148.579315;faceUp;-7.62939453125e-05;-0.000762939453125;-0.995819091796875;
2024-10-12 23:15:40;1728764148.6292849;faceUp;-0.0008087158203125;-0.00506591796875;-0.99688720703125;
2024-10-12 23:15:40;1728764148.679179;faceUp;-0.0049591064453125;-0.0031890869140625;-1.00030517578125;
2024-10-12 23:15:40;1728764148.7292352;faceUp;-0.0034942626953125;-0.0002899169921875;-0.992218017578125;
2024-10-12 23:15:40;1728764148.7789578;faceUp;-0.0059356689453125;-0.0019073486328125;-0.999908447265625;
2024-10-12 23:15:40;1728764148.82896;faceUp;-0.0058746337890625;-0.00384521484375;-0.9927520751953125;
2024-10-12 23:15:40;1728764148.878732;faceUp;-0.00677490234375;-0.0003204345703125;-1.00042724609375;
2024-10-12 23:15:40;1728764148.9287338;faceUp;-0.0045166015625;-0.0021209716796875;-0.99298095703125;
2024-10-12 23:15:40;1728764148.978616;faceUp;0.00091552734375;-0.0006561279296875;-0.997894287109375;
2024-10-12 23:15:40;1728764149.028565;faceUp;-0.0025177001953125;-0.0040435791015625;-0.9981536865234375;
2024-10-12 23:15:40;1728764149.078312;faceUp;-0.003814697265625;-0.000946044921875;-0.996063232421875;
2024-10-12 23:15:40;1728764149.128353;faceUp;-0.002471923828125;-0.0023345947265625;-0.99700927734375;
2024-10-12 23:15:40;1728764149.178154;faceUp;-0.000579833984375;-0.0012969970703125;-0.9996337890625;
2024-10-12 23:15:40;1728764149.228153;faceUp;-0.0068206787109375;-0.003509521484375;-0.9951324462890625;
2024-10-12 23:15:40;1728764149.278054;faceUp;-0.0043792724609375;-0.002044677734375;-0.9970855712890625;
2024-10-12 23:15:40;1728764149.3280458;faceUp;-0.0038909912109375;0.0009613037109375;-1.000762939453125;
2024-10-12 23:15:40;1728764149.377794;faceUp;-0.0052490234375;-0.0037841796875;-0.9932861328125;
2024-10-12 23:15:40;1728764149.427557;faceUp;-0.000946044921875;-0.0044403076171875;-0.99932861328125;
2024-10-12 23:15:40;1728764149.4775639;faceUp;-0.00152587890625;-0.000457763671875;-0.9979705810546875;
2024-10-12 23:15:40;1728764149.5275822;faceUp;-0.0035400390625;-0.0065765380859375;-0.9904327392578125;
2024-10-12 23:15:40;1728764149.577402;faceUp;-0.0075225830078125;-0.0019378662109375;-1.0033111572265625;
2024-10-12 23:15:40;1728764149.627311;faceUp;0.0023345947265625;-0.0019378662109375;-0.992889404296875;
2024-10-12 23:15:40;1728764149.677104;faceUp;-0.005645751953125;-0.0017242431640625;-0.999664306640625;
2024-10-12 23:15:40;1728764149.727144;faceUp;-0.00811767578125;-0.001312255859375;-0.9955596923828125;
2024-10-12 23:15:40;1728764149.776973;faceUp;-0.0047149658203125;0.00054931640625;-0.9949951171875;
2024-10-12 23:15:40;1728764149.8270621;faceUp;-0.003570556640625;-0.001129150390625;-0.9999237060546875;
2024-10-12 23:15:40;1728764149.876905;faceUp;-0.002838134765625;-0.0047149658203125;-0.99481201171875;
2024-10-12 23:15:40;1728764149.9267468;faceUp;-0.0027618408203125;-0.00384521484375;-0.9985198974609375;
2024-10-12 23:15:40;1728764149.976557;faceUp;-0.001617431640625;-0.00579833984375;-0.9964599609375;
2024-10-12 23:15:40;1728764150.026555;faceUp;-0.003021240234375;-0.0026702880859375;-0.997467041015625;
2024-10-12 23:15:40;1728764150.076349;faceUp;-0.0049285888671875;-0.003570556640625;-0.9962615966796875;
2024-10-12 23:15:40;1728764150.126385;faceUp;-0.003204345703125;0.0008697509765625;-0.9976348876953125;
2024-10-12 23:15:40;1728764150.1763139;faceUp;-0.00799560546875;-0.0010986328125;-0.9961395263671875;
2024-10-12 23:15:40;1728764150.226221;faceUp;-0.003509521484375;-0.0022735595703125;-0.9964141845703125;
2024-10-12 23:15:40;1728764150.276073;faceUp;-0.00537109375;-0.0020751953125;-0.9977874755859375;
2024-10-12 23:15:40;1728764150.326091;faceUp;-0.0038604736328125;-0.0026397705078125;-0.9960784912109375;
2024-10-12 23:15:40;1728764150.3758879;faceUp;-0.0009918212890625;-0.0019683837890625;-0.99774169921875;
2024-10-12 23:15:40;1728764150.425891;faceUp;-0.0018768310546875;0.000457763671875;-0.9977264404296875;
2024-10-12 23:15:40;1728764150.4756231;faceUp;-0.0007476806640625;-0.00140380859375;-0.9966278076171875;
2024-10-12 23:15:40;1728764150.525619;faceUp;-0.0027618408203125;-0.0015869140625;-0.9983673095703125;
2024-10-12 23:15:40;1728764150.575391;faceUp;-0.00457763671875;-0.0030059814453125;-0.9964599609375;
2024-10-12 23:15:40;1728764150.625317;faceUp;-0.0049285888671875;-0.002532958984375;-0.996307373046875;
2024-10-12 23:15:40;1728764150.6751862;faceUp;-0.0039215087890625;-0.000823974609375;-0.9970245361328125;
2024-10-12 23:15:40;1728764150.725244;faceUp;-0.001434326171875;-0.0012664794921875;-0.9954833984375;
2024-10-12 23:15:40;1728764150.775193;faceUp;-0.004608154296875;-0.0024261474609375;-0.9997711181640625;
2024-10-12 23:15:40;1728764150.8250952;faceUp;-0.0022125244140625;-0.00347900390625;-0.9951171875;
2024-10-12 23:15:40;1728764150.8748322;faceUp;0.0003814697265625;-0.00189208984375;-1.00140380859375;
2024-10-12 23:15:40;1728764150.924782;faceUp;-0.003814697265625;-0.002899169921875;-0.9907684326171875;
2024-10-12 23:15:40;1728764150.974597;faceUp;-0.0022125244140625;-0.00433349609375;-0.9989013671875;
2024-10-12 23:15:40;1728764151.0247688;faceUp;-0.0047607421875;0.0003204345703125;-0.9980926513671875;
2024-10-12 23:15:40;1728764151.074547;faceUp;-0.0055694580078125;-0.0006103515625;-0.9943084716796875;
2024-10-12 23:15:40;1728764151.12443;faceUp;-0.0034637451171875;-0.0013580322265625;-0.997039794921875;
2024-10-12 23:15:40;1728764151.174217;faceUp;-0.00408935546875;-0.002685546875;-0.9978485107421875;
2024-10-12 23:15:40;1728764151.224338;faceUp;-0.00250244140625;-0.00091552734375;-0.9964752197265625;
2024-10-12 23:15:40;1728764151.2740479;faceUp;-0.000274658203125;-0.0019378662109375;-0.9979400634765625;
2024-10-12 23:15:40;1728764151.324193;faceUp;0.0027618408203125;0.000579833984375;-0.995269775390625;
2024-10-12 23:15:40;1728764151.3740501;faceUp;-0.002899169921875;-0.0036468505859375;-0.99896240234375;
2024-10-12 23:15:40;1728764151.423959;faceUp;-0.0019073486328125;-0.0016021728515625;-0.995330810546875;
2024-10-12 23:15:40;1728764151.473768;faceUp;-0.00299072265625;0.0002288818359375;-0.99945068359375;
2024-10-12 23:15:40;1728764151.523593;faceUp;-0.0076446533203125;-0.0024261474609375;-0.9941864013671875;
2024-10-12 23:15:40;1728764151.5735478;faceUp;-0.0016326904296875;-0.0038909912109375;-0.9951171875;
2024-10-12 23:15:40;1728764151.62352;faceUp;-0.0022735595703125;-0.0001983642578125;-1.000732421875;
2024-10-12 23:15:40;1728764151.6733341;faceUp;-0.001983642578125;-0.0046539306640625;-0.99481201171875;
2024-10-12 23:15:40;1728764151.723249;faceUp;-0.0003509521484375;-0.003387451171875;-0.9967498779296875;
2024-10-12 23:15:40;1728764151.773601;faceUp;-0.0023651123046875;-0.00347900390625;-0.9990692138671875;
2024-10-12 23:15:40;1728764151.82308;faceUp;-0.0038604736328125;-0.002105712890625;-0.994873046875;
2024-10-12 23:15:40;1728764151.872854;faceUp;-0.0055389404296875;-0.00274658203125;-1.0013275146484375;
2024-10-12 23:15:40;1728764151.923005;faceUp;-0.0033721923828125;0.0001220703125;-0.9941253662109375;
2024-10-12 23:15:40;1728764151.9730592;faceUp;-0.00445556640625;-0.0038604736328125;-0.9990081787109375;
2024-10-12 23:15:40;1728764152.022685;faceUp;-0.0081787109375;-0.001556396484375;-0.99420166015625;
2024-10-12 23:15:40;1728764152.073102;faceUp;-0.0060882568359375;9.1552734375e-05;-0.998046875;
2024-10-12 23:15:40;1728764152.1226292;faceUp;-0.0019378662109375;-0.003143310546875;-0.996612548828125;
2024-10-12 23:15:40;1728764152.173295;faceUp;-0.001434326171875;-0.0032958984375;-0.9945831298828125;
2024-10-12 23:15:40;1728764152.223302;faceUp;-0.003265380859375;-0.0017852783203125;-1.0020294189453125;
2024-10-12 23:15:40;1728764152.2732558;faceUp;-0.001708984375;-0.00250244140625;-0.992431640625;
2024-10-12 23:15:40;1728764152.323083;faceUp;-0.0028533935546875;-0.004150390625;-0.999420166015625;
2024-10-12 23:15:40;1728764152.3733249;faceUp;-0.004730224609375;-0.0052642822265625;-0.995330810546875;
2024-10-12 23:15:40;1728764152.423365;faceUp;-0.0042877197265625;-0.003448486328125;-0.9953460693359375;
2024-10-12 23:15:40;1728764152.473243;faceUp;-0.00537109375;-0.00189208984375;-0.999359130859375;
2024-10-12 23:15:40;1728764152.522917;faceUp;-0.003997802734375;-0.0028533935546875;-0.9933929443359375;
2024-10-12 23:15:40;1728764152.571539;faceUp;-0.003936767578125;-0.0052947998046875;-0.9968109130859375;
2024-10-12 23:15:40;1728764152.621554;faceUp;-0.0009918212890625;-0.0052490234375;-0.999664306640625;
2024-10-12 23:15:40;1728764152.6713471;faceUp;-0.002105712890625;-0.0039215087890625;-0.9927978515625;
2024-10-12 23:15:40;1728764152.722506;faceUp;-0.0080718994140625;-0.00048828125;-1.0012054443359375;
2024-10-12 23:15:40;1728764152.771394;faceUp;-0.002716064453125;-0.003082275390625;-0.9928131103515625;
2024-10-12 23:15:40;1728764152.82126;faceUp;-0.002197265625;-0.0023193359375;-0.999969482421875;
2024-10-12 23:15:40;1728764152.8709478;faceUp;-0.0045166015625;-0.0027923583984375;-0.9959564208984375;
2024-10-12 23:15:40;1728764152.92069;faceUp;-0.0019989013671875;-0.0030975341796875;-0.997222900390625;
2024-10-12 23:15:40;1728764152.97069;faceUp;-0.0015869140625;-0.0012054443359375;-0.9966888427734375;
2024-10-12 23:15:40;1728764153.020767;faceUp;-0.00543212890625;-0.0017547607421875;-0.9956512451171875;
2024-10-12 23:15:40;1728764153.0706391;faceUp;-0.004486083984375;-0.001556396484375;-0.9956512451171875;
2024-10-12 23:15:40;1728764153.120534;faceUp;-3.0517578125e-05;-0.0030364990234375;-0.9980010986328125;
2024-10-12 23:15:40;1728764153.170353;faceUp;-0.0022735595703125;-0.0042266845703125;-0.99566650390625;
2024-10-12 23:15:40;1728764153.220461;faceUp;-0.00372314453125;-0.0031890869140625;-1.0003204345703125;
2024-10-12 23:15:40;1728764153.270047;faceUp;-0.0013275146484375;0.0001373291015625;-0.9933319091796875;
2024-10-12 23:15:40;1728764153.3201919;faceUp;-0.002410888671875;-0.0027008056640625;-0.9981231689453125;
2024-10-12 23:15:40;1728764153.370209;faceUp;-0.0037078857421875;-0.0047454833984375;-0.9975433349609375;
2024-10-12 23:15:40;1728764153.420006;faceUp;-0.002410888671875;0.0001983642578125;-0.996490478515625;
2024-10-12 23:15:40;1728764153.469791;faceUp;-0.0021820068359375;-0.0024871826171875;-0.9962615966796875;
2024-10-12 23:15:40;1728764153.5197191;faceUp;-0.0005645751953125;-0.001739501953125;-0.997528076171875;
2024-10-12 23:15:40;1728764153.569529;faceUp;-0.0030059814453125;-0.00140380859375;-0.9954071044921875;
2024-10-12 23:15:40;1728764153.6195521;faceUp;-0.00189208984375;-0.003173828125;-0.998565673828125;
2024-10-12 23:15:40;1728764153.669647;faceUp;-0.0019073486328125;-0.001495361328125;-0.9967803955078125;
2024-10-12 23:15:40;1728764153.719527;faceUp;-0.0033721923828125;-0.0010833740234375;-0.998779296875;
2024-10-12 23:15:40;1728764153.7693748;faceUp;-0.0028076171875;-0.0009002685546875;-0.997039794921875;
2024-10-12 23:15:40;1728764153.8193579;faceUp;-1.52587890625e-05;-0.00225830078125;-0.995452880859375;
2024-10-12 23:15:40;1728764153.869124;faceUp;-0.0031585693359375;-0.0045318603515625;-0.9970550537109375;
2024-10-12 23:15:40;1728764153.919379;faceUp;-0.0019378662109375;-0.001617431640625;-0.9991607666015625;
2024-10-12 23:15:40;1728764153.969373;faceUp;-0.000885009765625;-0.001220703125;-0.9931488037109375;
2024-10-12 23:15:40;1728764154.018852;faceUp;-0.003265380859375;-0.0032806396484375;-0.9996795654296875;
2024-10-12 23:15:40;1728764154.068656;faceUp;-0.0041656494140625;-0.0047454833984375;-0.9952239990234375;
2024-10-12 23:15:40;1728764154.118602;faceUp;-0.0005645751953125;-0.0044403076171875;-0.9979248046875;
2024-10-12 23:15:40;1728764154.1683831;faceUp;-0.00140380859375;-0.003570556640625;-0.9970245361328125;
2024-10-12 23:15:40;1728764154.218494;faceUp;-0.004608154296875;-0.00262451171875;-0.9972686767578125;
2024-10-12 23:15:40;1728764154.268309;faceUp;-0.003448486328125;-0.0029449462890625;-0.9944610595703125;
2024-10-12 23:15:40;1728764154.318304;faceUp;-0.0016632080078125;-0.005584716796875;-1.0014801025390625;
2024-10-12 23:15:40;1728764154.368093;faceUp;-0.0023651123046875;-0.003662109375;-0.994354248046875;
2024-10-12 23:15:40;1728764154.4181008;faceUp;-0.002593994140625;-0.00445556640625;-0.9989776611328125;
2024-10-12 23:15:40;1728764154.467833;faceUp;0.000823974609375;-0.003265380859375;-0.996612548828125;
2024-10-12 23:15:40;1728764154.517931;faceUp;-0.0037078857421875;-0.0043182373046875;-0.9951171875;
2024-10-12 23:15:40;1728764154.56778;faceUp;-0.0056915283203125;-0.0036773681640625;-0.9965057373046875;
2024-10-12 23:15:40;1728764154.617661;faceUp;-0.001861572265625;-0.0047149658203125;-0.9969940185546875;
2024-10-12 23:15:40;1728764154.667423;faceUp;-0.0037384033203125;-0.001953125;-0.996246337890625;
2024-10-12 23:15:40;1728764154.71718;faceUp;-0.00225830078125;-0.0033111572265625;-0.9981231689453125;
2024-10-12 23:15:40;1728764154.7673712;faceUp;-0.001312255859375;-0.0021820068359375;-0.9958038330078125;
2024-10-12 23:15:40;1728764154.817188;faceUp;-0.0030670166015625;-0.00408935546875;-0.9999237060546875;
2024-10-12 23:15:40;1728764154.8669639;faceUp;-0.0047454833984375;-0.002716064453125;-0.9945220947265625;
2024-10-12 23:15:40;1728764154.916842;faceUp;-0.0020751953125;-0.0013427734375;-0.9980926513671875;
2024-10-12 23:15:40;1728764154.966732;faceUp;-0.00042724609375;-0.0001678466796875;-0.9957275390625;
2024-10-12 23:15:40;1728764155.01669;faceUp;-0.002349853515625;0.0010528564453125;-0.9968719482421875;
2024-10-12 23:15:40;1728764155.066512;faceUp;-0.00323486328125;-0.004608154296875;-0.997894287109375;
2024-10-12 23:15:40;1728764155.116651;faceUp;0.000701904296875;-0.0029449462890625;-0.9965972900390625;
2024-10-12 23:15:40;1728764155.166364;faceUp;-0.0013580322265625;-0.0025482177734375;-0.99688720703125;
2024-10-12 23:15:40;1728764155.2163038;faceUp;-0.0048675537109375;0.0005035400390625;-0.99761962890625;
2024-10-12 23:15:40;1728764155.2661362;faceUp;-0.0023040771484375;-0.001800537109375;-0.9940185546875;
2024-10-12 23:15:40;1728764155.316144;faceUp;-0.0004730224609375;0.0001220703125;-0.998199462890625;
2024-10-12 23:15:40;1728764155.366015;faceUp;-0.0027313232421875;-0.003570556640625;-0.994903564453125;
2024-10-12 23:15:40;1728764155.415956;faceUp;1.52587890625e-05;-0.0020904541015625;-0.9981536865234375;
2024-10-12 23:15:40;1728764155.4658031;faceUp;-0.000457763671875;-0.0008087158203125;-0.9950103759765625;
2024-10-12 23:15:40;1728764155.5157042;faceUp;-0.0009918212890625;-0.0032196044921875;-0.9966583251953125;
2024-10-12 23:15:40;1728764155.565567;faceUp;0.000762939453125;-0.00164794921875;-0.9971771240234375;
2024-10-12 23:15:40;1728764155.6154861;faceUp;-0.0010986328125;0.0007781982421875;-0.9942626953125;
2024-10-12 23:15:40;1728764155.6653628;faceUp;-0.00274658203125;-0.0015106201171875;-0.9974517822265625;
2024-10-12 23:15:40;1728764155.7153502;faceUp;-0.00177001953125;0.000335693359375;-0.9967193603515625;
2024-10-12 23:15:40;1728764155.765151;faceUp;-0.0012054443359375;-0.002899169921875;-0.9962005615234375;
2024-10-12 23:15:40;1728764155.815095;faceUp;0.0006256103515625;-6.103515625e-05;-0.9979095458984375;
2024-10-12 23:15:40;1728764155.864877;faceUp;0.0006256103515625;-0.0011138916015625;-0.995849609375;
2024-10-12 23:15:40;1728764155.914902;faceUp;-0.0016937255859375;-0.001556396484375;-0.9971466064453125;
2024-10-12 23:15:40;1728764155.964751;faceUp;0.000823974609375;0.0001220703125;-0.9967041015625;
2024-10-12 23:15:40;1728764156.014852;faceUp;-0.00140380859375;-0.0004730224609375;-0.9959564208984375;
2024-10-12 23:15:40;1728764156.0645761;faceUp;-0.0018463134765625;-0.00140380859375;-0.9979248046875;
2024-10-12 23:15:40;1728764156.1147962;faceUp;-7.62939453125e-05;-0.001312255859375;-0.9960784912109375;
2024-10-12 23:15:40;1728764156.1643682;faceUp;0.0020294189453125;0.0004730224609375;-0.995880126953125;
2024-10-12 23:15:40;1728764156.214371;faceUp;-1.52587890625e-05;-0.001953125;-0.99822998046875;
2024-10-12 23:15:40;1728764156.264163;faceUp;-0.001922607421875;-0.0010833740234375;-0.9970703125;
2024-10-12 23:15:40;1728764156.3142362;faceUp;0.0002899169921875;0.0012664794921875;-0.9962158203125;
2024-10-12 23:15:40;1728764156.364079;faceUp;-0.00128173828125;-0.0014495849609375;-0.9963226318359375;
2024-10-12 23:15:40;1728764156.413937;faceUp;-0.000579833984375;-0.0013275146484375;-0.996124267578125;
2024-10-12 23:15:40;1728764156.463791;faceUp;0.0023345947265625;-0.0006561279296875;-0.99591064453125;
2024-10-12 23:15:40;1728764156.513767;faceUp;-0.0023345947265625;0.0016021728515625;-0.9984130859375;
2024-10-12 23:15:40;1728764156.563682;faceUp;-3.0517578125e-05;-0.00238037109375;-0.994720458984375;
2024-10-12 23:15:40;1728764156.613848;faceUp;0.001983642578125;-0.00146484375;-0.998291015625;
2024-10-12 23:15:40;1728764156.663522;faceUp;-0.0003814697265625;-0.000732421875;-0.9954681396484375;
2024-10-12 23:15:40;1728764156.713492;faceUp;-0.0009918212890625;-0.00079345703125;-0.9958648681640625;
2024-10-12 23:15:40;1728764156.76331;faceUp;-0.0009765625;0.0019989013671875;-0.999603271484375;
2024-10-12 23:15:40;1728764156.8133678;faceUp;0.0004425048828125;-0.0012054443359375;-0.9937896728515625;
2024-10-12 23:15:40;1728764156.863367;faceUp;-0.000335693359375;-0.0029754638671875;-0.998138427734375;
2024-10-12 23:15:40;1728764156.913382;faceUp;0.0003204345703125;-0.00555419921875;-0.996917724609375;
2024-10-12 23:15:40;1728764156.963169;faceUp;0.0007171630859375;-0.0015716552734375;-0.996917724609375;
2024-10-12 23:15:40;1728764157.012732;faceUp;-0.000732421875;0.0001220703125;-0.9957122802734375;
2024-10-12 23:15:40;1728764157.06313;faceUp;-0.00189208984375;7.62939453125e-05;-0.994720458984375;
2024-10-12 23:15:40;1728764157.112493;faceUp;0.0001983642578125;-0.0046844482421875;-0.99920654296875;
2024-10-12 23:15:40;1728764157.162596;faceUp;-0.0017852783203125;-0.0044097900390625;-0.997344970703125;
2024-10-12 23:15:40;1728764157.213176;faceUp;-0.0004730224609375;-0.00213623046875;-0.994140625;
2024-10-12 23:15:40;1728764157.263279;faceUp;0.001373291015625;-0.0011138916015625;-0.9990081787109375;
2024-10-12 23:15:40;1728764157.313325;faceUp;0.001708984375;-0.0021209716796875;-0.995086669921875;
2024-10-12 23:15:40;1728764157.363049;faceUp;-0.002655029296875;-0.00396728515625;-0.998992919921875;
2024-10-12 23:15:40;1728764157.413209;faceUp;-0.00146484375;-0.002227783203125;-0.994720458984375;
2024-10-12 23:15:40;1728764157.463006;faceUp;-0.00115966796875;-0.0028533935546875;-0.995758056640625;
2024-10-12 23:15:40;1728764157.513238;faceUp;-0.0035858154296875;-0.00042724609375;-0.99761962890625;
2024-10-12 23:15:40;1728764157.56322;faceUp;0.0001220703125;-0.0021209716796875;-0.99456787109375;
2024-10-12 23:15:40;1728764157.6129131;faceUp;-0.0007171630859375;-0.0036468505859375;-0.997528076171875;
2024-10-12 23:15:40;1728764157.66155;faceUp;-0.001373291015625;-0.003570556640625;-0.99444580078125;
2024-10-12 23:15:40;1728764157.711438;faceUp;-0.0016326904296875;-0.0012359619140625;-0.9980621337890625;
2024-10-12 23:15:40;1728764157.76244;faceUp;-0.0009918212890625;-0.0016326904296875;-0.995086669921875;
2024-10-12 23:15:40;1728764157.8115358;faceUp;-0.000152587890625;0.00079345703125;-0.997711181640625;
2024-10-12 23:15:40;1728764157.861182;faceUp;-0.0008392333984375;-0.00262451171875;-0.9958343505859375;
2024-10-12 23:15:40;1728764157.91123;faceUp;-0.0003204345703125;-0.0022735595703125;-0.9965057373046875;
2024-10-12 23:15:40;1728764157.960927;faceUp;0.0001983642578125;-0.000762939453125;-0.9983367919921875;
2024-10-12 23:15:40;1728764158.011043;faceUp;0.00146484375;0.0005950927734375;-0.9946136474609375;
2024-10-12 23:15:40;1728764158.060811;faceUp;-0.0007171630859375;0.0016937255859375;-0.997589111328125;
2024-10-12 23:15:40;1728764158.110851;faceUp;-0.0005035400390625;-0.00079345703125;-0.9951171875;
2024-10-12 23:15:40;1728764158.160619;faceUp;-0.0004119873046875;-0.0005035400390625;-0.9981689453125;
2024-10-12 23:15:40;1728764158.210571;faceUp;-0.0013885498046875;-0.00091552734375;-0.9976959228515625;
2024-10-12 23:15:40;1728764158.2603679;faceUp;0.00140380859375;-0.0013580322265625;-0.9936676025390625;
2024-10-12 23:15:40;1728764158.31043;faceUp;-0.00054931640625;-0.00018310546875;-1.0004119873046875;
2024-10-12 23:15:40;1728764158.360353;faceUp;-0.001983642578125;0.000946044921875;-0.99346923828125;
2024-10-12 23:15:40;1728764158.410194;faceUp;0.000518798828125;-0.0018768310546875;-0.997100830078125;
2024-10-12 23:15:40;1728764158.460071;faceUp;0.0006561279296875;0.0002593994140625;-0.999176025390625;
2024-10-12 23:15:40;1728764158.510117;faceUp;-0.0004730224609375;0.0010223388671875;-0.990875244140625;
2024-10-12 23:15:40;1728764158.559832;faceUp;-0.0017852783203125;-0.0036773681640625;-1.0;
2024-10-12 23:15:40;1728764158.609808;faceUp;-0.000335693359375;-0.0008392333984375;-0.9945220947265625;
2024-10-12 23:15:40;1728764158.659684;faceUp;-0.001495361328125;0.0027313232421875;-0.997222900390625;
2024-10-12 23:15:40;1728764158.709701;faceUp;-1.52587890625e-05;0.00091552734375;-0.996246337890625;
2024-10-12 23:15:40;1728764158.759386;faceUp;0.00238037109375;0.002288818359375;-0.99554443359375;
2024-10-12 23:15:40;1728764158.8094459;faceUp;-0.0040740966796875;-0.0044403076171875;-0.99664306640625;
2024-10-12 23:15:40;1728764158.8592792;faceUp;0.0005645751953125;0.002044677734375;-0.996063232421875;
2024-10-12 23:15:40;1728764158.909297;faceUp;4.57763671875e-05;0.003173828125;-0.99560546875;
2024-10-12 23:15:40;1728764158.959073;faceUp;0.00274658203125;0.0001678466796875;-0.9976043701171875;
2024-10-12 23:15:40;1728764159.008884;faceUp;0.0025177001953125;-0.0003814697265625;-0.9945068359375;
2024-10-12 23:15:40;1728764159.058779;faceUp;-0.0009765625;-0.00347900390625;-1.0000152587890625;
2024-10-12 23:15:40;1728764159.1088328;faceUp;0.0022430419921875;-0.0003204345703125;-0.9943695068359375;
2024-10-12 23:15:40;1728764159.158637;faceUp;0.0050048828125;-0.001678466796875;-0.9981842041015625;
2024-10-12 23:15:40;1728764159.208632;faceUp;0.00018310546875;0.001251220703125;-0.99774169921875;
2024-10-12 23:15:40;1728764159.2586842;faceUp;-0.002685546875;0.0016021728515625;-0.9965972900390625;
2024-10-12 23:15:40;1728764159.3085542;faceUp;-0.0025482177734375;-0.0014190673828125;-0.9957733154296875;
2024-10-12 23:15:40;1728764159.3582978;faceUp;-0.000823974609375;0.0004730224609375;-0.9981689453125;
2024-10-12 23:15:40;1728764159.408319;faceUp;-6.103515625e-05;-0.0004119873046875;-0.9933929443359375;
2024-10-12 23:15:40;1728764159.458057;faceUp;0.0025177001953125;0.001373291015625;-0.998779296875;
2024-10-12 23:15:40;1728764159.508257;faceUp;-0.00115966796875;-0.0008392333984375;-0.9951324462890625;
2024-10-12 23:15:40;1728764159.557873;faceUp;0.0017547607421875;0.00225830078125;-0.9982452392578125;
2024-10-12 23:15:40;1728764159.607967;faceUp;0.00286865234375;0.00347900390625;-0.9946441650390625;
2024-10-12 23:15:40;1728764159.657662;faceUp;0.001617431640625;-0.003814697265625;-0.99700927734375;
2024-10-12 23:15:40;1728764159.7076979;faceUp;0.0005645751953125;-0.00128173828125;-0.99835205078125;
2024-10-12 23:15:40;1728764159.7575378;faceUp;0.0027618408203125;0.0053558349609375;-0.995025634765625;
2024-10-12 23:15:40;1728764159.807592;faceUp;0.000335693359375;-0.000335693359375;-0.9951171875;
2024-10-12 23:15:40;1728764159.857201;faceUp;-0.00054931640625;-1.52587890625e-05;-0.9997406005859375;
2024-10-12 23:15:40;1728764159.9073071;faceUp;-0.00286865234375;-0.0004730224609375;-0.9936370849609375;
2024-10-12 23:15:40;1728764159.957155;faceUp;0.0045623779296875;0.0004425048828125;-0.9982147216796875;
2024-10-12 23:15:40;1728764160.007107;faceUp;-0.0004425048828125;0.0003204345703125;-0.9962005615234375;
2024-10-12 23:15:40;1728764160.056884;faceUp;0.00335693359375;-0.0010833740234375;-0.9944305419921875;
2024-10-12 23:15:40;1728764160.107024;faceUp;-0.0007476806640625;0.000518798828125;-1.000274658203125;
2024-10-12 23:15:40;1728764160.156798;faceUp;0.0020599365234375;0.00830078125;-0.9921112060546875;
2024-10-12 23:15:40;1728764160.2068849;faceUp;-0.001556396484375;-0.0038604736328125;-0.9958953857421875;
2024-10-12 23:15:40;1728764160.2565079;faceUp;-0.0005035400390625;-0.0021209716796875;-1.0010833740234375;
2024-10-12 23:15:40;1728764160.30667;faceUp;0.00347900390625;-0.0009765625;-0.990020751953125;
2024-10-12 23:15:40;1728764160.356371;faceUp;0.002471923828125;0.0028839111328125;-1.0027313232421875;
2024-10-12 23:15:40;1728764160.4064698;faceUp;0.001708984375;0.004425048828125;-0.992034912109375;
2024-10-12 23:15:40;1728764160.456213;faceUp;-0.0023651123046875;-0.0047454833984375;-0.9989013671875;
2024-10-12 23:15:40;1728764160.5063128;faceUp;-0.00177001953125;-0.0027923583984375;-0.9964141845703125;
2024-10-12 23:15:40;1728764160.555898;faceUp;0.003387451171875;0.0028533935546875;-0.994354248046875;
2024-10-12 23:15:40;1728764160.606019;faceUp;-0.002105712890625;-0.0001220703125;-0.9997100830078125;
2024-10-12 23:15:40;1728764160.655717;faceUp;0.0020599365234375;-0.0005645751953125;-0.9945831298828125;
2024-10-12 23:15:40;1728764160.706232;faceUp;0.0018463134765625;-9.1552734375e-05;-0.997528076171875;
2024-10-12 23:15:40;1728764160.755581;faceUp;0.00390625;-0.0012054443359375;-0.9962310791015625;
2024-10-12 23:15:40;1728764160.8056111;faceUp;0.0013580322265625;-0.000579833984375;-0.9953155517578125;
2024-10-12 23:15:40;1728764160.85531;faceUp;-0.0072021484375;0.000823974609375;-0.9994964599609375;
2024-10-12 23:15:40;1728764160.9054642;faceUp;0.00030517578125;-0.00079345703125;-0.992431640625;
2024-10-12 23:15:40;1728764160.9551969;faceUp;0.0003814697265625;0.000946044921875;-1.000091552734375;
2024-10-12 23:15:40;1728764161.0050979;faceUp;0.003509521484375;0.0037384033203125;-0.9920196533203125;
2024-10-12 23:15:40;1728764161.054956;faceUp;0.0006561279296875;-0.00555419921875;-0.99774169921875;
2024-10-12 23:15:40;1728764161.1049871;faceUp;0.00018310546875;0.000274658203125;-1.00146484375;
2024-10-12 23:15:40;1728764161.154666;faceUp;0.00213623046875;0.002777099609375;-0.9917449951171875;
2024-10-12 23:15:40;1728764161.2049031;faceUp;0.0008087158203125;-0.003936767578125;-0.99749755859375;
2024-10-12 23:15:40;1728764161.255072;faceUp;0.001312255859375;3.0517578125e-05;-0.99774169921875;
2024-10-12 23:15:40;1728764161.305366;faceUp;-0.0019378662109375;-0.000579833984375;-0.9934539794921875;
2024-10-12 23:15:40;1728764161.3548331;faceUp;-0.0015716552734375;0.0012664794921875;-0.9997100830078125;
2024-10-12 23:15:40;1728764161.4048681;faceUp;-0.001434326171875;0.00115966796875;-0.9929962158203125;
2024-10-12 23:15:40;1728764161.454214;faceUp;-0.00250244140625;0.0011749267578125;-0.99627685546875;
2024-10-12 23:15:40;1728764161.504451;faceUp;0.001556396484375;-0.001922607421875;-0.9965362548828125;
2024-10-12 23:15:40;1728764161.554061;faceUp;0.0045623779296875;-0.002166748046875;-0.997406005859375;
2024-10-12 23:15:40;1728764161.604156;faceUp;0.0018310546875;0.00048828125;-0.99700927734375;
2024-10-12 23:15:40;1728764161.653893;faceUp;-0.0010223388671875;0.0015411376953125;-0.9958343505859375;
2024-10-12 23:15:40;1728764161.703992;faceUp;-0.0024566650390625;0.0009002685546875;-0.99688720703125;
2024-10-12 23:15:40;1728764161.753542;faceUp;-0.0031280517578125;9.1552734375e-05;-0.99591064453125;
2024-10-12 23:15:40;1728764161.803664;faceUp;0.0015106201171875;-0.0015411376953125;-0.9961090087890625;
2024-10-12 23:15:40;1728764161.853691;faceUp;-7.62939453125e-05;-4.57763671875e-05;-0.9993438720703125;
2024-10-12 23:15:40;1728764161.904468;faceUp;0.0018157958984375;0.0017242431640625;-0.99395751953125;
2024-10-12 23:15:40;1728764161.95327;faceUp;-0.00128173828125;0.0019989013671875;-0.9991912841796875;
2024-10-12 23:15:40;1728764162.003581;faceUp;-0.002899169921875;0.0010223388671875;-0.994140625;
2024-10-12 23:15:40;1728764162.052985;faceUp;0.00213623046875;-0.001251220703125;-0.996917724609375;
2024-10-12 23:15:40;1728764162.103051;faceUp;0.00018310546875;0.00048828125;-0.997955322265625;
2024-10-12 23:15:40;1728764162.15304;faceUp;0.001678466796875;0.0008544921875;-0.993927001953125;
2024-10-12 23:15:40;1728764162.203617;faceUp;-0.000732421875;0.000579833984375;-0.9983978271484375;
2024-10-12 23:15:40;1728764162.2531428;faceUp;-0.0005035400390625;0.001678466796875;-0.9960784912109375;
2024-10-12 23:15:40;1728764162.303259;faceUp;-0.002349853515625;3.0517578125e-05;-0.9967193603515625;
2024-10-12 23:15:40;1728764162.353201;faceUp;0.001007080078125;0.0007476806640625;-0.9974212646484375;
2024-10-12 23:15:40;1728764162.4033031;faceUp;0.0008697509765625;0.0015106201171875;-0.99371337890625;
2024-10-12 23:15:40;1728764162.453481;faceUp;0.0001068115234375;0.001251220703125;-0.998626708984375;
2024-10-12 23:15:40;1728764162.5040522;faceUp;0.00042724609375;0.000396728515625;-0.9962615966796875;
2024-10-12 23:15:40;1728764162.553241;faceUp;0.003204345703125;4.57763671875e-05;-0.995208740234375;
2024-10-12 23:15:40;1728764162.603407;faceUp;0.0009002685546875;-0.00079345703125;-0.998016357421875;
2024-10-12 23:15:40;1728764162.652981;faceUp;-0.002410888671875;-7.62939453125e-05;-0.9961700439453125;
2024-10-12 23:15:40;1728764162.70362;faceUp;-0.0015869140625;0.0026702880859375;-0.995513916015625;
2024-10-12 23:15:40;1728764162.752584;faceUp;3.0517578125e-05;0.002838134765625;-0.9966583251953125;
2024-10-12 23:15:40;1728764162.803495;faceUp;-0.0001220703125;-0.0001220703125;-0.9962921142578125;
2024-10-12 23:15:40;1728764162.853044;faceUp;0.0001220703125;-0.000762939453125;-0.9953155517578125;
2024-10-12 23:15:40;1728764162.9015598;faceUp;-0.000274658203125;-0.000701904296875;-0.999176025390625;
2024-10-12 23:15:40;1728764162.9512858;faceUp;-0.000396728515625;0.00042724609375;-0.9921112060546875;
2024-10-12 23:15:40;1728764163.00139;faceUp;-0.001861572265625;0.0030364990234375;-1.0000152587890625;
2024-10-12 23:15:40;1728764163.051074;faceUp;0.0001373291015625;-0.0005340576171875;-0.994232177734375;
2024-10-12 23:15:40;1728764163.101157;faceUp;0.001495361328125;-0.0009765625;-0.9986419677734375;
2024-10-12 23:15:40;1728764163.15093;faceUp;0.0004730224609375;0.001190185546875;-0.994293212890625;
2024-10-12 23:15:40;1728764163.2008939;faceUp;-0.0045013427734375;-0.0010528564453125;-0.99981689453125;
2024-10-12 23:15:40;1728764163.2507548;faceUp;0.0036468505859375;0.002532958984375;-0.9943389892578125;
2024-10-12 23:15:40;1728764163.300703;faceUp;0.0028228759765625;0.001007080078125;-0.996002197265625;
2024-10-12 23:15:40;1728764163.350585;faceUp;-0.001922607421875;-0.0015411376953125;-0.9989013671875;
2024-10-12 23:15:40;1728764163.400495;faceUp;-0.0004119873046875;0.0015869140625;-0.9948883056640625;
2024-10-12 23:15:40;1728764163.450378;faceUp;0.0001068115234375;0.00103759765625;-0.997772216796875;
2024-10-12 23:15:40;1728764163.5003319;faceUp;0.002044677734375;7.62939453125e-05;-0.9956512451171875;
2024-10-12 23:15:40;1728764163.550077;faceUp;0.0018310546875;-0.000213623046875;-0.9959869384765625;
2024-10-12 23:15:40;1728764163.60011;faceUp;-0.0003662109375;-0.001434326171875;-0.9966583251953125;
2024-10-12 23:15:40;1728764163.650014;faceUp;-0.002105712890625;3.0517578125e-05;-0.99761962890625;
2024-10-12 23:15:40;1728764163.700094;faceUp;-0.0001678466796875;0.0015869140625;-0.9956512451171875;
2024-10-12 23:15:40;1728764163.749696;faceUp;-0.0002899169921875;0.00128173828125;-0.9978485107421875;
2024-10-12 23:15:40;1728764163.799689;faceUp;-0.0029296875;1.52587890625e-05;-0.996978759765625;
2024-10-12 23:15:40;1728764163.849485;faceUp;-0.00018310546875;-0.00164794921875;-0.9962310791015625;
2024-10-12 23:15:40;1728764163.89952;faceUp;-0.0007781982421875;-0.001556396484375;-0.9980926513671875;
2024-10-12 23:15:40;1728764163.949397;faceUp;0.0008392333984375;0.0012054443359375;-0.9957733154296875;
2024-10-12 23:15:40;1728764163.999377;faceUp;-0.00054931640625;-0.00018310546875;-0.9960479736328125;
2024-10-12 23:15:40;1728764164.0490751;faceUp;0.0011749267578125;0.0001678466796875;-0.9953155517578125;
2024-10-12 23:15:40;1728764164.098927;faceUp;-0.0012359619140625;-0.0018157958984375;-0.9983062744140625;
2024-10-12 23:15:40;1728764164.148934;faceUp;-0.000579833984375;0.0009002685546875;-0.99676513671875;
2024-10-12 23:15:40;1728764164.1988869;faceUp;0.0021209716796875;0.0013275146484375;-0.9940948486328125;
2024-10-12 23:15:40;1728764164.248814;faceUp;1.52587890625e-05;0.000579833984375;-0.999114990234375;
2024-10-12 23:15:40;1728764164.298809;faceUp;-0.0004425048828125;-0.0009918212890625;-0.9938507080078125;
2024-10-12 23:15:40;1728764164.348576;faceUp;0.0008087158203125;-0.0023956298828125;-0.9971771240234375;
2024-10-12 23:15:40;1728764164.398524;faceUp;-0.0002899169921875;0.0023193359375;-0.9970550537109375;
2024-10-12 23:15:40;1728764164.448357;faceUp;0.000885009765625;-3.0517578125e-05;-0.99481201171875;
2024-10-12 23:15:40;1728764164.498364;faceUp;-0.0012359619140625;-0.001739501953125;-0.99847412109375;
2024-10-12 23:15:40;1728764164.5482469;faceUp;-0.001312255859375;0.001220703125;-0.996246337890625;
2024-10-12 23:15:40;1728764164.598157;faceUp;-0.0021820068359375;0.0005340576171875;-0.9956817626953125;
2024-10-12 23:15:40;1728764164.647949;faceUp;1.52587890625e-05;-0.0009002685546875;-0.996429443359375;
2024-10-12 23:15:40;1728764164.69797;faceUp;0.0009002685546875;-0.00146484375;-0.9951934814453125;
2024-10-12 23:15:40;1728764164.747875;faceUp;0.00018310546875;0.001312255859375;-0.9970245361328125;
2024-10-12 23:15:40;1728764164.797579;faceUp;0.001251220703125;-0.001495361328125;-0.9971160888671875;
2024-10-12 23:15:40;1728764164.847686;faceUp;-0.0002899169921875;0.0034637451171875;-0.997100830078125;
2024-10-12 23:15:40;1728764164.897503;faceUp;-0.001678466796875;0.0015106201171875;-0.9940185546875;
2024-10-12 23:15:40;1728764164.947396;faceUp;-0.0003509521484375;-0.00201416015625;-0.9982452392578125;
2024-10-12 23:15:40;1728764164.997303;faceUp;0.00164794921875;-0.0024261474609375;-0.9959259033203125;
2024-10-12 23:15:40;1728764165.0470572;faceUp;0.0032806396484375;0.0010528564453125;-0.995208740234375;
2024-10-12 23:15:40;1728764165.097182;faceUp;0.003082275390625;0.002899169921875;-0.997467041015625;
2024-10-12 23:15:40;1728764165.147073;faceUp;-0.0001678466796875;0.000335693359375;-0.995147705078125;
2024-10-12 23:15:40;1728764165.196996;faceUp;-0.00341796875;0.00048828125;-0.9975433349609375;
2024-10-12 23:15:40;1728764165.246736;faceUp;0.00146484375;-0.000335693359375;-0.996429443359375;
2024-10-12 23:15:40;1728764165.296783;faceUp;-0.00042724609375;0.0012969970703125;-0.9951934814453125;
2024-10-12 23:15:40;1728764165.3465462;faceUp;0.001861572265625;-0.00128173828125;-0.9983673095703125;
2024-10-12 23:15:40;1728764165.3966188;faceUp;0.002716064453125;0.0021514892578125;-0.9972076416015625;
2024-10-12 23:15:40;1728764165.446374;faceUp;-0.0001220703125;0.0043182373046875;-0.9908905029296875;
2024-10-12 23:15:40;1728764165.496346;faceUp;-0.0044097900390625;-0.0074920654296875;-1.00299072265625;
2024-10-12 23:15:40;1728764165.546202;faceUp;0.002349853515625;0.0054473876953125;-0.9965972900390625;
2024-10-12 23:15:40;1728764165.596164;faceUp;-0.00067138671875;0.008453369140625;-0.9891815185546875;
2024-10-12 23:15:40;1728764165.645968;faceUp;-0.0032806396484375;-0.007843017578125;-1.00238037109375;
2024-10-12 23:15:40;1728764165.6960058;faceUp;0.004150390625;0.0048675537109375;-0.9959869384765625;
2024-10-12 23:15:40;1728764165.745878;faceUp;-0.0041961669921875;0.0003662109375;-0.9911041259765625;
2024-10-12 23:15:40;1728764165.7957249;faceUp;0.0023040771484375;-0.002655029296875;-1.0027313232421875;
2024-10-12 23:15:40;1728764165.845615;faceUp;-0.0004425048828125;0.0041961669921875;-0.992828369140625;
2024-10-12 23:15:40;1728764165.895568;faceUp;-0.002349853515625;0.001708984375;-0.996734619140625;
2024-10-12 23:15:40;1728764165.945425;faceUp;-0.0019989013671875;0.0001678466796875;-0.9959869384765625;
2024-10-12 23:15:40;1728764165.9954429;faceUp;0.0020751953125;-0.002471923828125;-0.9954986572265625;
2024-10-12 23:15:40;1728764166.0452209;faceUp;0.0023345947265625;-0.0062103271484375;-0.99884033203125;
2024-10-12 23:15:40;1728764166.095213;faceUp;0.0020751953125;7.62939453125e-05;-0.99560546875;
2024-10-12 23:15:40;1728764166.145031;faceUp;0.0054473876953125;0.0108184814453125;-0.99676513671875;
2024-10-12 23:15:40;1728764166.194954;faceUp;0.0149383544921875;0.0108642578125;-0.997528076171875;
2024-10-12 23:15:40;1728764166.2447948;faceUp;-0.0031890869140625;-0.006622314453125;-0.99365234375;
2024-10-12 23:15:40;1728764166.29486;faceUp;-0.0023193359375;-0.0036468505859375;-1.0019073486328125;
2024-10-12 23:15:40;1728764166.344794;faceUp;-0.0082244873046875;-0.0010833740234375;-0.983856201171875;
2024-10-12 23:15:40;1728764166.394723;faceUp;-0.0104827880859375;-0.006103515625;-1.0088348388671875;
2024-10-12 23:15:40;1728764166.444349;faceUp;0.015350341796875;0.0126800537109375;-0.99383544921875;
2024-10-12 23:15:40;1728764166.494726;faceUp;0.0164337158203125;0.0026092529296875;-0.981170654296875;
2024-10-12 23:15:40;1728764166.5442681;faceUp;-0.0151519775390625;-0.0146484375;-1.013427734375;
2024-10-12 23:15:40;1728764166.594439;faceUp;-0.0036163330078125;0.0064697265625;-0.9947509765625;
2024-10-12 23:15:40;1728764166.644104;faceUp;0.0048980712890625;0.0069122314453125;-0.9823760986328125;
2024-10-12 23:15:40;1728764166.69413;faceUp;-0.0062713623046875;-0.0034027099609375;-1.01104736328125;
2024-10-12 23:15:40;1728764166.7438889;faceUp;-0.0148468017578125;-0.002960205078125;-0.9919281005859375;
2024-10-12 23:15:40;1728764166.793942;faceUp;0.0135345458984375;0.010467529296875;-0.9928741455078125;
2024-10-12 23:15:40;1728764166.84369;faceUp;0.045806884765625;0.010772705078125;-0.9996490478515625;
2024-10-12 23:15:40;1728764166.893805;faceUp;0.005615234375;-0.0106048583984375;-1.00115966796875;
2024-10-12 23:15:40;1728764166.943495;faceUp;-0.0258636474609375;-0.0179595947265625;-0.98883056640625;
2024-10-12 23:15:40;1728764166.993676;faceUp;-0.00830078125;0.0063018798828125;-0.9996337890625;
2024-10-12 23:15:40;1728764167.043264;faceUp;-0.0033111572265625;0.0070343017578125;-0.996856689453125;
2024-10-12 23:15:40;1728764167.093332;faceUp;0.0037841796875;0.009979248046875;-0.9924163818359375;
2024-10-12 23:15:40;1728764167.14307;faceUp;0.01177978515625;0.00244140625;-0.9953460693359375;
2024-10-12 23:15:40;1728764167.1932368;faceUp;0.005340576171875;-0.0030364990234375;-0.998687744140625;
2024-10-12 23:15:40;1728764167.243297;faceUp;0.000274658203125;-0.0042724609375;-0.9967498779296875;
2024-10-12 23:15:40;1728764167.2928429;faceUp;0.0017547607421875;-0.0001373291015625;-0.9983978271484375;
2024-10-12 23:15:40;1728764167.342773;faceUp;0.00494384765625;0.0052642822265625;-0.9967498779296875;
2024-10-12 23:15:40;1728764167.392685;faceUp;0.00054931640625;0.00238037109375;-0.997406005859375;
2024-10-12 23:15:40;1728764167.442769;faceUp;0.0047454833984375;0.0009613037109375;-0.9949188232421875;
2024-10-12 23:15:40;1728764167.4926;faceUp;0.0030975341796875;-0.0025787353515625;-0.996429443359375;
2024-10-12 23:15:40;1728764167.5433578;faceUp;-0.002777099609375;0.0013427734375;-0.997406005859375;
2024-10-12 23:15:40;1728764167.592332;faceUp;-0.004180908203125;-3.0517578125e-05;-0.996337890625;
2024-10-12 23:15:40;1728764167.6426759;faceUp;0.003509521484375;0.0014495849609375;-0.9958038330078125;
2024-10-12 23:15:40;1728764167.6931;faceUp;0.0057525634765625;0.0015411376953125;-0.99755859375;
2024-10-12 23:15:40;1728764167.742521;faceUp;0.0015869140625;-0.005462646484375;-0.9968414306640625;
2024-10-12 23:15:40;1728764167.791902;faceUp;0.0044708251953125;-0.0015106201171875;-0.9979705810546875;
2024-10-12 23:15:40;1728764167.8432078;faceUp;0.002593994140625;0.0022735595703125;-0.9938507080078125;
2024-10-12 23:15:40;1728764167.892421;faceUp;-0.003509521484375;0.00042724609375;-0.9975738525390625;
2024-10-12 23:15:40;1728764167.942749;faceUp;-0.00299072265625;0.000701904296875;-0.9951629638671875;
2024-10-12 23:15:40;1728764167.992354;faceUp;0.0001220703125;0.0006866455078125;-0.9959259033203125;
2024-10-12 23:15:40;1728764168.041362;faceUp;0.0063323974609375;-0.00225830078125;-0.9952850341796875;
2024-10-12 23:15:40;1728764168.0923991;faceUp;0.0020751953125;6.103515625e-05;-1.0004730224609375;
2024-10-12 23:15:40;1728764168.1411572;faceUp;-0.001373291015625;-0.0001678466796875;-0.994720458984375;
2024-10-12 23:15:40;1728764168.192387;faceUp;0.003082275390625;0.0031280517578125;-0.9967498779296875;
2024-10-12 23:15:40;1728764168.240916;faceUp;0.0004119873046875;0.0012054443359375;-0.994781494140625;
2024-10-12 23:15:40;1728764168.292377;faceUp;-0.0017852783203125;-0.00286865234375;-0.99737548828125;
2024-10-12 23:15:40;1728764168.3408542;faceUp;0.000823974609375;0.000396728515625;-0.9976654052734375;
2024-10-12 23:15:40;1728764168.392293;faceUp;3.0517578125e-05;0.0006561279296875;-0.9943695068359375;
2024-10-12 23:15:40;1728764168.440596;faceUp;0.002044677734375;0.002716064453125;-0.9978485107421875;
2024-10-12 23:15:40;1728764168.492247;faceUp;0.002960205078125;-0.0008087158203125;-0.996246337890625;
2024-10-12 23:15:40;1728764168.5403628;faceUp;-0.001007080078125;-0.0003814697265625;-0.9970245361328125;
2024-10-12 23:15:40;1728764168.590435;faceUp;0.0020751953125;-0.0001983642578125;-0.9962310791015625;
2024-10-12 23:15:40;1728764168.640143;faceUp;0.0;-0.00018310546875;-0.996856689453125;
2024-10-12 23:15:40;1728764168.690372;faceUp;0.001800537109375;0.002471923828125;-0.9949798583984375;
2024-10-12 23:15:40;1728764168.7399712;faceUp;-0.001708984375;-0.0005340576171875;-0.9974517822265625;
2024-10-12 23:15:40;1728764168.790162;faceUp;0.00115966796875;-0.0018157958984375;-0.9948883056640625;
2024-10-12 23:15:40;1728764168.839888;faceUp;0.001800537109375;-0.001007080078125;-0.9983978271484375;
2024-10-12 23:15:40;1728764168.8897982;faceUp;0.0029296875;0.0039825439453125;-0.9953460693359375;
2024-10-12 23:15:40;1728764168.939734;faceUp;-7.62939453125e-05;-0.0018310546875;-0.995208740234375;
2024-10-12 23:15:40;1728764168.989774;faceUp;0.0007171630859375;-0.00250244140625;-0.9988861083984375;
2024-10-12 23:15:40;1728764169.0393739;faceUp;-6.103515625e-05;-0.000335693359375;-0.9943695068359375;
2024-10-12 23:15:40;1728764169.089497;faceUp;0.0001220703125;-0.0003814697265625;-0.9970245361328125;
2024-10-12 23:15:40;1728764169.1392;faceUp;0.0013580322265625;0.0022735595703125;-0.9970703125;
2024-10-12 23:15:40;1728764169.189264;faceUp;-0.0011444091796875;-0.0002288818359375;-0.9955596923828125;
2024-10-12 23:15:40;1728764169.23909;faceUp;0.0012054443359375;-0.001983642578125;-0.998931884765625;
2024-10-12 23:15:40;1728764169.28935;faceUp;0.0032958984375;-0.001129150390625;-0.994720458984375;
2024-10-12 23:15:40;1728764169.3388171;faceUp;-0.000823974609375;0.0015869140625;-0.9972076416015625;
2024-10-12 23:15:40;1728764169.388864;faceUp;0.0017852783203125;-0.0002899169921875;-0.9931793212890625;
2024-10-12 23:15:40;1728764169.438797;faceUp;-0.0001373291015625;-0.001495361328125;-0.9987640380859375;
2024-10-12 23:15:40;1728764169.488641;faceUp;-0.002685546875;-0.001953125;-0.994110107421875;
2024-10-12 23:15:40;1728764169.538496;faceUp;0.0045928955078125;0.0030517578125;-0.997711181640625;
2024-10-12 23:15:40;1728764169.588536;faceUp;0.0021514892578125;0.00115966796875;-0.9964141845703125;
2024-10-12 23:15:40;1728764169.638284;faceUp;0.0012054443359375;-0.0014495849609375;-0.9978485107421875;
2024-10-12 23:15:40;1728764169.6881719;faceUp;0.0014495849609375;0.0004730224609375;-0.995758056640625;
2024-10-12 23:15:40;1728764169.737962;faceUp;0.0009613037109375;0.000457763671875;-0.9959716796875;
2024-10-12 23:15:40;1728764169.788031;faceUp;0.0004730224609375;0.0009002685546875;-0.9962310791015625;
2024-10-12 23:15:40;1728764169.837945;faceUp;-0.001068115234375;0.001129150390625;-0.9958343505859375;
2024-10-12 23:15:40;1728764169.8879352;faceUp;-0.0004119873046875;0.0003662109375;-0.994964599609375;
2024-10-12 23:15:40;1728764169.937633;faceUp;0.0029754638671875;-6.103515625e-05;-0.998748779296875;
2024-10-12 23:15:40;1728764169.987679;faceUp;0.0021820068359375;-0.000946044921875;-0.996490478515625;
2024-10-12 23:15:40;1728764170.037401;faceUp;0.00323486328125;-0.00054931640625;-0.9954376220703125;
2024-10-12 23:15:40;1728764170.087632;faceUp;0.0013275146484375;-0.0011749267578125;-0.997039794921875;
2024-10-12 23:15:40;1728764170.137367;faceUp;0.0007171630859375;0.0003662109375;-0.9962005615234375;
2024-10-12 23:15:40;1728764170.1873631;faceUp;0.003082275390625;0.0042724609375;-0.9954071044921875;
2024-10-12 23:15:40;1728764170.236999;faceUp;0.0058746337890625;0.0055694580078125;-0.99591064453125;
2024-10-12 23:15:40;1728764170.287132;faceUp;0.001739501953125;-0.0016632080078125;-0.994171142578125;
2024-10-12 23:15:40;1728764170.337012;faceUp;-0.009368896484375;-0.0086822509765625;-0.9999542236328125;
2024-10-12 23:15:40;1728764170.387032;faceUp;-0.0081634521484375;-0.00177001953125;-0.9978790283203125;
2024-10-12 23:15:40;1728764170.436763;faceUp;0.00689697265625;0.002044677734375;-0.9952392578125;
2024-10-12 23:15:40;1728764170.486556;faceUp;0.01318359375;0.006622314453125;-0.99725341796875;
2024-10-12 23:15:40;1728764170.536463;faceUp;0.0061798095703125;0.0026702880859375;-0.9947509765625;
2024-10-12 23:15:40;1728764170.5864859;faceUp;0.0064239501953125;0.0034637451171875;-0.995849609375;
2024-10-12 23:15:40;1728764170.636301;faceUp;-0.0049896240234375;0.003692626953125;-0.99713134765625;
2024-10-12 23:15:40;1728764170.686408;faceUp;-0.013275146484375;-0.001556396484375;-0.9969329833984375;
2024-10-12 23:15:40;1728764170.7360492;faceUp;-0.01123046875;-0.01666259765625;-0.9964599609375;
2024-10-12 23:15:40;1728764170.786036;faceUp;0.00140380859375;-0.00091552734375;-0.998443603515625;
2024-10-12 23:15:40;1728764170.8358579;faceUp;0.0068511962890625;0.0059356689453125;-0.9948272705078125;
2024-10-12 23:15:40;1728764170.88592;faceUp;0.003387451171875;0.0064697265625;-0.998809814453125;
2024-10-12 23:15:40;1728764170.935689;faceUp;0.011505126953125;0.0040740966796875;-0.9958648681640625;
2024-10-12 23:15:40;1728764170.985717;faceUp;0.0177154541015625;-0.002777099609375;-0.99560546875;
2024-10-12 23:15:40;1728764171.035469;faceUp;-0.0050201416015625;-0.0051727294921875;-0.9975433349609375;
2024-10-12 23:15:40;1728764171.0853791;faceUp;-0.0196533203125;-0.0070037841796875;-1.0;
2024-10-12 23:15:40;1728764171.135185;faceUp;-0.013153076171875;0.00787353515625;-0.9951934814453125;
2024-10-12 23:15:40;1728764171.185149;faceUp;0.0004425048828125;0.0167388916015625;-0.9889373779296875;
2024-10-12 23:15:40;1728764171.235005;faceUp;-0.00347900390625;-0.000244140625;-1.0001373291015625;
2024-10-12 23:15:40;1728764171.285398;faceUp;-0.005828857421875;-0.001800537109375;-0.994598388671875;
2024-10-12 23:15:40;1728764171.3348799;faceUp;-0.0074005126953125;-0.0037689208984375;-0.994140625;
2024-10-12 23:15:40;1728764171.385044;faceUp;-0.0055999755859375;-0.0042572021484375;-0.999847412109375;
2024-10-12 23:15:40;1728764171.434902;faceUp;0.0112457275390625;-0.001617431640625;-0.9956207275390625;
2024-10-12 23:15:40;1728764171.485098;faceUp;-0.0015411376953125;0.01092529296875;-0.9925384521484375;
2024-10-12 23:15:40;1728764171.5344992;faceUp;-0.020965576171875;-0.0032806396484375;-0.999053955078125;
2024-10-12 23:15:40;1728764171.584914;faceUp;-0.003143310546875;-0.0034942626953125;-0.997528076171875;
2024-10-12 23:15:40;1728764171.634551;faceUp;0.020233154296875;0.0030975341796875;-0.9931488037109375;
2024-10-12 23:15:40;1728764171.6846828;faceUp;-0.00457763671875;-0.0041046142578125;-0.9957275390625;
2024-10-12 23:15:40;1728764171.7339869;faceUp;-0.0192413330078125;0.0027923583984375;-1.004974365234375;
2024-10-12 23:15:40;1728764171.784131;faceUp;-0.0046539306640625;0.0043792724609375;-0.9886016845703125;
2024-10-12 23:15:40;1728764171.833967;faceUp;0.006195068359375;0.002960205078125;-0.9970855712890625;
2024-10-12 23:15:40;1728764171.88407;faceUp;-0.0067901611328125;-0.0020904541015625;-0.9971771240234375;
2024-10-12 23:15:40;1728764171.933694;faceUp;-0.00970458984375;-0.002960205078125;-0.9936981201171875;
2024-10-12 23:15:40;1728764171.9837332;faceUp;-0.00091552734375;0.00189208984375;-0.9957427978515625;
2024-10-12 23:15:40;1728764172.0335488;faceUp;-9.1552734375e-05;-0.0028228759765625;-1.0002593994140625;
2024-10-12 23:15:40;1728764172.0835261;faceUp;-0.0050811767578125;0.0122528076171875;-0.9908599853515625;
2024-10-12 23:15:40;1728764172.13323;faceUp;-0.0138397216796875;-0.000396728515625;-0.9977264404296875;
2024-10-12 23:15:40;1728764172.1832461;faceUp;-0.011993408203125;-0.0049591064453125;-0.9972381591796875;
2024-10-12 23:15:40;1728764172.2331672;faceUp;0.0057525634765625;-0.001007080078125;-0.9943389892578125;
2024-10-12 23:15:40;1728764172.283392;faceUp;0.0106201171875;-0.0007171630859375;-0.9985809326171875;
2024-10-12 23:15:40;1728764172.332922;faceUp;-0.0001373291015625;0.002349853515625;-0.9952850341796875;
2024-10-12 23:15:40;1728764172.3829021;faceUp;-0.0064849853515625;-0.0039520263671875;-0.99755859375;
2024-10-12 23:15:40;1728764172.433114;faceUp;-0.00201416015625;-0.00042724609375;-0.998504638671875;
2024-10-12 23:15:40;1728764172.483115;faceUp;-0.001251220703125;0.00250244140625;-0.9915618896484375;
2024-10-12 23:15:40;1728764172.532826;faceUp;0.0025634765625;0.007781982421875;-0.99853515625;
2024-10-12 23:15:40;1728764172.582689;faceUp;-0.0051422119140625;0.00421142578125;-0.9940338134765625;
2024-10-12 23:15:40;1728764172.6325479;faceUp;-0.0123443603515625;0.0011138916015625;-0.996490478515625;
2024-10-12 23:15:40;1728764172.682492;faceUp;-0.0061798095703125;-0.0027313232421875;-0.9964141845703125;
2024-10-12 23:15:40;1728764172.7325702;faceUp;-0.002777099609375;-0.006378173828125;-0.998016357421875;
2024-10-12 23:15:40;1728764172.782905;faceUp;0.0004119873046875;-0.0023040771484375;-0.9963531494140625;
2024-10-12 23:15:40;1728764172.832817;faceUp;0.0130615234375;0.0019989013671875;-0.996002197265625;
2024-10-12 23:15:40;1728764172.882649;faceUp;0.01019287109375;0.00634765625;-0.99822998046875;
2024-10-12 23:15:40;1728764172.931906;faceUp;-0.0041046142578125;0.00244140625;-0.9948883056640625;
2024-10-12 23:15:40;1728764172.982485;faceUp;-0.010223388671875;-0.0061492919921875;-0.995513916015625;
2024-10-12 23:15:40;1728764173.032525;faceUp;-0.0031280517578125;-0.0008697509765625;-0.99920654296875;
2024-10-12 23:15:40;1728764173.082797;faceUp;0.00335693359375;0.0025482177734375;-0.99188232421875;
2024-10-12 23:15:40;1728764173.13269;faceUp;-0.0006561279296875;0.0012664794921875;-0.9984130859375;
2024-10-12 23:15:40;1728764173.1827512;faceUp;0.00128173828125;0.0041046142578125;-0.9959564208984375;
2024-10-12 23:15:40;1728764173.231123;faceUp;0.00048828125;0.0037841796875;-0.9963226318359375;
2024-10-12 23:15:40;1728764173.28111;faceUp;-0.0001068115234375;-0.001129150390625;-0.994964599609375;
2024-10-12 23:15:40;1728764173.33103;faceUp;4.57763671875e-05;-0.001495361328125;-0.99700927734375;
2024-10-12 23:15:40;1728764173.3811212;faceUp;-0.0008697509765625;-1.52587890625e-05;-0.99420166015625;
2024-10-12 23:15:40;1728764173.430769;faceUp;0.000823974609375;0.0025634765625;-0.997406005859375;
2024-10-12 23:15:40;1728764173.48082;faceUp;0.0001220703125;0.001739501953125;-0.9950714111328125;
2024-10-12 23:15:40;1728764173.530583;faceUp;-0.00164794921875;0.00018310546875;-0.9972381591796875;
2024-10-12 23:15:40;1728764173.580539;faceUp;-0.000396728515625;-0.0001983642578125;-0.996673583984375;
2024-10-12 23:15:40;1728764173.63025;faceUp;0.001007080078125;-0.002716064453125;-0.9979400634765625;
2024-10-12 23:15:40;1728764173.680458;faceUp;0.0007781982421875;0.0009765625;-0.9963531494140625;
2024-10-12 23:15:40;1728764173.730238;faceUp;-0.002166748046875;-0.001129150390625;-0.994720458984375;
2024-10-12 23:15:40;1728764173.7801409;faceUp;-0.0005340576171875;-1.52587890625e-05;-0.9964141845703125;
2024-10-12 23:15:40;1728764173.8300428;faceUp;-0.0029754638671875;0.0020294189453125;-0.99609375;
2024-10-12 23:15:40;1728764173.879894;faceUp;-0.0022735595703125;-0.001129150390625;-0.995849609375;
2024-10-12 23:15:40;1728764173.9298239;faceUp;-0.0005035400390625;-0.00238037109375;-0.9959869384765625;
2024-10-12 23:15:40;1728764173.979938;faceUp;-0.000274658203125;-0.0007476806640625;-0.99609375;
2024-10-12 23:15:40;1728764174.029556;faceUp;-0.002227783203125;0.00115966796875;-0.995330810546875;
2024-10-12 23:15:40;1728764174.0795379;faceUp;-0.000396728515625;0.0018310546875;-0.996429443359375;
2024-10-12 23:15:40;1728764174.1294122;faceUp;-0.0033416748046875;-0.0005035400390625;-0.996795654296875;
2024-10-12 23:15:40;1728764174.179364;faceUp;0.0003814697265625;0.000244140625;-0.9956512451171875;
2024-10-12 23:15:40;1728764174.229281;faceUp;-0.001708984375;-0.003509521484375;-0.997161865234375;
2024-10-12 23:15:40;1728764174.279284;faceUp;-0.0026397705078125;0.0002288818359375;-0.9974822998046875;
2024-10-12 23:15:40;1728764174.329066;faceUp;-0.0020599365234375;0.000457763671875;-0.9947509765625;
2024-10-12 23:15:40;1728764174.379014;faceUp;-0.00177001953125;0.0038299560546875;-0.99774169921875;
2024-10-12 23:15:40;1728764174.428832;faceUp;-3.0517578125e-05;0.0001373291015625;-0.9949951171875;
2024-10-12 23:15:40;1728764174.4787579;faceUp;-0.0009765625;-0.001953125;-0.9979248046875;
2024-10-12 23:15:40;1728764174.5286632;faceUp;-0.00189208984375;9.1552734375e-05;-0.99609375;
2024-10-12 23:15:40;1728764174.57858;faceUp;-0.0027618408203125;0.00128173828125;-0.9960784912109375;
2024-10-12 23:15:40;1728764174.62845;faceUp;-0.00164794921875;0.001068115234375;-0.997406005859375;
2024-10-12 23:15:40;1728764174.678382;faceUp;-0.0010986328125;-0.001220703125;-0.995819091796875;
2024-10-12 23:15:40;1728764174.7282;faceUp;-0.000396728515625;0.0001068115234375;-0.9970855712890625;
2024-10-12 23:15:40;1728764174.778172;faceUp;-3.0517578125e-05;-1.52587890625e-05;-0.9959869384765625;
2024-10-12 23:15:40;1728764174.828116;faceUp;-0.003204345703125;0.001007080078125;-0.9977569580078125;
2024-10-12 23:15:40;1728764174.8780289;faceUp;-0.0011138916015625;0.0019683837890625;-0.9954681396484375;
2024-10-12 23:15:40;1728764174.927805;faceUp;-0.0008697509765625;-0.00091552734375;-0.99774169921875;
2024-10-12 23:15:40;1728764174.977847;faceUp;1.52587890625e-05;0.0016326904296875;-0.9952239990234375;
2024-10-12 23:15:40;1728764175.027711;faceUp;-0.0012359619140625;-0.00323486328125;-0.996795654296875;
2024-10-12 23:15:40;1728764175.0776281;faceUp;-0.0010528564453125;0.0005340576171875;-0.998321533203125;
2024-10-12 23:15:40;1728764175.1275291;faceUp;-0.0002593994140625;0.00152587890625;-0.9945220947265625;
2024-10-12 23:15:40;1728764175.1775088;faceUp;-0.0021209716796875;-0.0028533935546875;-0.9984893798828125;
2024-10-12 23:15:40;1728764175.2272139;faceUp;0.0016937255859375;0.00079345703125;-0.994781494140625;
2024-10-12 23:15:40;1728764175.277247;faceUp;-0.0019073486328125;-0.000885009765625;-0.9983978271484375;
2024-10-12 23:15:40;1728764175.327075;faceUp;0.0010986328125;0.0007781982421875;-0.9965057373046875;
2024-10-12 23:15:40;1728764175.377063;faceUp;-0.0015716552734375;0.003509521484375;-0.996551513671875;
2024-10-12 23:15:40;1728764175.426909;faceUp;-0.004608154296875;0.0005950927734375;-0.994781494140625;
2024-10-12 23:15:40;1728764175.47691;faceUp;0.000640869140625;-0.0009918212890625;-0.9964599609375;
2024-10-12 23:15:40;1728764175.5266352;faceUp;-0.00048828125;0.00042724609375;-0.9971160888671875;
2024-10-12 23:15:40;1728764175.57658;faceUp;0.000701904296875;-0.0006561279296875;-0.9964141845703125;
2024-10-12 23:15:40;1728764175.6264648;faceUp;-0.000274658203125;0.000335693359375;-0.99615478515625;
2024-10-12 23:15:40;1728764175.676384;faceUp;-0.001129150390625;-0.000244140625;-0.9961090087890625;
2024-10-12 23:15:40;1728764175.726352;faceUp;-0.002105712890625;0.0011138916015625;-0.99609375;
2024-10-12 23:15:40;1728764175.776288;faceUp;-0.0006561279296875;-9.1552734375e-05;-0.9962921142578125;
2024-10-12 23:15:40;1728764175.826128;faceUp;-0.00238037109375;-0.0004730224609375;-0.9976043701171875;
2024-10-12 23:15:40;1728764175.8760262;faceUp;0.0003662109375;0.00341796875;-0.9965667724609375;
2024-10-12 23:15:40;1728764175.925875;faceUp;0.0012664794921875;-0.0017242431640625;-0.9953765869140625;
2024-10-12 23:15:40;1728764175.975871;faceUp;-0.00091552734375;-0.0029754638671875;-0.9997711181640625;
2024-10-12 23:15:40;1728764176.025789;faceUp;-0.00103759765625;0.0011749267578125;-0.994781494140625;
2024-10-12 23:15:40;1728764176.075624;faceUp;-0.00152587890625;0.004669189453125;-0.9957733154296875;
2024-10-12 23:15:40;1728764176.125473;faceUp;-0.00146484375;0.00079345703125;-0.9956512451171875;
2024-10-12 23:15:40;1728764176.175448;faceUp;0.0004119873046875;-0.0008544921875;-0.995513916015625;
2024-10-12 23:15:40;1728764176.225264;faceUp;0.00103759765625;-0.0010986328125;-0.9969482421875;
2024-10-12 23:15:40;1728764176.275336;faceUp;-7.62939453125e-05;0.00048828125;-0.99578857421875;
2024-10-12 23:15:40;1728764176.325237;faceUp;-0.0018310546875;0.0015716552734375;-0.997039794921875;
2024-10-12 23:15:40;1728764176.375185;faceUp;0.0019378662109375;0.000885009765625;-0.9945068359375;
2024-10-12 23:15:40;1728764176.42486;faceUp;-0.002471923828125;-0.0001678466796875;-0.9974822998046875;
2024-10-12 23:15:40;1728764176.4748979;faceUp;0.002838134765625;0.0009307861328125;-0.993988037109375;
2024-10-12 23:15:40;1728764176.524549;faceUp;0.0012359619140625;0.000396728515625;-0.997772216796875;
2024-10-12 23:15:40;1728764176.574679;faceUp;-0.0019073486328125;0.0002593994140625;-0.996551513671875;
2024-10-12 23:15:40;1728764176.624483;faceUp;-0.0006866455078125;0.00189208984375;-0.99609375;
2024-10-12 23:15:40;1728764176.67446;faceUp;-0.000823974609375;0.002716064453125;-0.9957427978515625;
2024-10-12 23:15:40;1728764176.7244658;faceUp;0.0010223388671875;-0.0003204345703125;-0.9961700439453125;
2024-10-12 23:15:40;1728764176.774446;faceUp;0.00103759765625;-0.0006103515625;-0.9962158203125;
2024-10-12 23:15:40;1728764176.82405;faceUp;0.0014190673828125;-0.0001678466796875;-0.9952850341796875;
2024-10-12 23:15:40;1728764176.874434;faceUp;-0.000762939453125;0.00067138671875;-0.9976806640625;
2024-10-12 23:15:40;1728764176.924038;faceUp;-0.0009613037109375;0.0028839111328125;-0.99530029296875;
2024-10-12 23:15:40;1728764176.973886;faceUp;0.0007171630859375;0.00189208984375;-0.99530029296875;
2024-10-12 23:15:40;1728764177.023664;faceUp;0.0001983642578125;-0.000274658203125;-0.998443603515625;
2024-10-12 23:15:40;1728764177.07376;faceUp;-0.0005035400390625;-0.0002899169921875;-0.9945068359375;
2024-10-12 23:15:40;1728764177.1232939;faceUp;-0.000244140625;-0.0001678466796875;-0.9971160888671875;
2024-10-12 23:15:40;1728764177.173388;faceUp;0.001983642578125;0.000213623046875;-0.996734619140625;
2024-10-12 23:15:40;1728764177.223376;faceUp;0.0004119873046875;0.0034942626953125;-0.9972381591796875;
2024-10-12 23:15:40;1728764177.273258;faceUp;0.0002288818359375;0.000518798828125;-0.9966278076171875;
2024-10-12 23:15:40;1728764177.323133;faceUp;0.0001678466796875;0.0002593994140625;-0.996002197265625;
2024-10-12 23:15:40;1728764177.373032;faceUp;-0.001129150390625;-0.0001678466796875;-0.99609375;
2024-10-12 23:15:40;1728764177.422913;faceUp;-0.0011138916015625;-0.000457763671875;-0.9965667724609375;
2024-10-12 23:15:40;1728764177.47299;faceUp;-0.0004730224609375;0.0012969970703125;-0.9969024658203125;
2024-10-12 23:15:40;1728764177.522702;faceUp;-0.0002593994140625;0.002227783203125;-0.9964141845703125;
2024-10-12 23:15:40;1728764177.5727139;faceUp;0.000274658203125;-0.0015106201171875;-0.996185302734375;
2024-10-12 23:15:40;1728764177.62254;faceUp;4.57763671875e-05;0.0008087158203125;-0.9981536865234375;
2024-10-12 23:15:40;1728764177.672508;faceUp;-0.001922607421875;-0.000762939453125;-0.9947052001953125;
2024-10-12 23:15:40;1728764177.7224221;faceUp;0.0003662109375;0.0027313232421875;-0.9974212646484375;
2024-10-12 23:15:40;1728764177.773092;faceUp;-0.000396728515625;-0.0029296875;-0.9971466064453125;
2024-10-12 23:15:40;1728764177.82269;faceUp;0.0008697509765625;0.0012359619140625;-0.995849609375;
2024-10-12 23:15:40;1728764177.872746;faceUp;0.001129150390625;0.0025177001953125;-0.9970245361328125;
2024-10-12 23:15:40;1728764177.922363;faceUp;-0.0017852783203125;0.0004425048828125;-0.9970245361328125;
2024-10-12 23:15:40;1728764177.9724169;faceUp;-0.0013885498046875;-0.000732421875;-0.996490478515625;
2024-10-12 23:15:40;1728764178.0226622;faceUp;0.0001068115234375;-0.00091552734375;-0.99652099609375;
2024-10-12 23:15:40;1728764178.0726628;faceUp;-0.001251220703125;-0.000244140625;-0.996124267578125;
2024-10-12 23:15:40;1728764178.1224751;faceUp;-0.0013885498046875;0.0032806396484375;-0.9972381591796875;
2024-10-12 23:15:40;1728764178.172669;faceUp;0.0035858154296875;0.004547119140625;-0.99462890625;
2024-10-12 23:15:40;1728764178.2229981;faceUp;0.00750732421875;0.0012664794921875;-0.9988555908203125;
2024-10-12 23:15:40;1728764178.272444;faceUp;0.0010986328125;0.000152587890625;-0.9928741455078125;
2024-10-12 23:15:40;1728764178.323092;faceUp;-0.013275146484375;-0.010467529296875;-1.0006561279296875;
2024-10-12 23:15:40;1728764178.373097;faceUp;-0.009246826171875;-0.0015869140625;-0.995025634765625;
2024-10-12 23:15:40;1728764178.4209728;faceUp;0.00286865234375;0.00457763671875;-0.9944610595703125;
2024-10-12 23:15:40;1728764178.470984;faceUp;0.003875732421875;0.007843017578125;-0.9988861083984375;
2024-10-12 23:15:40;1728764178.520854;faceUp;0.0005950927734375;0.0033111572265625;-0.992401123046875;
2024-10-12 23:15:40;1728764178.570804;faceUp;-0.004425048828125;-0.00506591796875;-0.9989776611328125;
2024-10-12 23:15:40;1728764178.6206388;faceUp;-0.0029449462890625;-0.0029144287109375;-0.9994964599609375;
2024-10-12 23:15:40;1728764178.67069;faceUp;-0.003082275390625;0.0020294189453125;-0.99298095703125;
2024-10-12 23:15:40;1728764178.7204099;faceUp;-0.0016937255859375;0.002166748046875;-0.9963836669921875;
2024-10-12 23:15:40;1728764178.770544;faceUp;-0.004302978515625;0.0014801025390625;-0.9971160888671875;
2024-10-12 23:15:40;1728764178.82017;faceUp;-0.0059661865234375;0.000518798828125;-0.9939117431640625;
2024-10-12 23:15:40;1728764178.8702621;faceUp;-0.0060577392578125;-0.0037994384765625;-0.999603271484375;
2024-10-12 23:15:40;1728764178.919976;faceUp;-0.001220703125;0.0009918212890625;-0.99383544921875;
2024-10-12 23:15:40;1728764178.970049;faceUp;-0.000457763671875;-0.001190185546875;-1.000030517578125;
2024-10-12 23:15:40;1728764179.019881;faceUp;-0.001373291015625;0.0027618408203125;-0.9944610595703125;
2024-10-12 23:15:40;1728764179.0697331;faceUp;0.0030517578125;0.0054473876953125;-0.997100830078125;
2024-10-12 23:15:40;1728764179.119662;faceUp;0.001708984375;0.0001373291015625;-0.9988861083984375;
2024-10-12 23:15:40;1728764179.169703;faceUp;-0.0084381103515625;-0.003204345703125;-0.9925689697265625;
2024-10-12 23:15:40;1728764179.2195458;faceUp;-0.0048828125;-0.0054931640625;-0.997589111328125;
2024-10-12 23:15:40;1728764179.269568;faceUp;0.0025482177734375;0.0006256103515625;-0.9973907470703125;
2024-10-12 23:15:40;1728764179.319349;faceUp;0.0018310546875;0.0069122314453125;-0.992462158203125;
2024-10-12 23:15:40;1728764179.369429;faceUp;-0.003570556640625;0.0002288818359375;-0.9981689453125;
2024-10-12 23:15:40;1728764179.4191241;faceUp;-0.0045928955078125;-0.0014801025390625;-0.9959564208984375;
2024-10-12 23:15:40;1728764179.468978;faceUp;-0.0001373291015625;-0.001861572265625;-0.995697021484375;
2024-10-12 23:15:40;1728764179.518919;faceUp;-0.003662109375;0.001129150390625;-0.9986419677734375;
2024-10-12 23:15:40;1728764179.568871;faceUp;0.0011749267578125;0.0011749267578125;-0.9945220947265625;
2024-10-12 23:15:40;1728764179.618631;faceUp;-0.0016937255859375;0.001495361328125;-0.9994659423828125;
2024-10-12 23:15:40;1728764179.668662;faceUp;-0.003570556640625;0.00067138671875;-0.9947662353515625;
2024-10-12 23:15:40;1728764179.7184582;faceUp;0.0007781982421875;0.000640869140625;-0.9969482421875;
2024-10-12 23:15:40;1728764179.768571;faceUp;-0.00177001953125;0.0003509521484375;-0.9964447021484375;
2024-10-12 23:15:40;1728764179.818207;faceUp;-0.003753662109375;-0.0010986328125;-0.995635986328125;
2024-10-12 23:15:40;1728764179.868349;faceUp;-0.000274658203125;0.002105712890625;-0.997100830078125;
2024-10-12 23:15:40;1728764179.918088;faceUp;-0.00213623046875;-0.0006561279296875;-0.995330810546875;
2024-10-12 23:15:40;1728764179.968055;faceUp;-3.0517578125e-05;-0.000457763671875;-0.9974365234375;
2024-10-12 23:15:40;1728764180.017984;faceUp;0.001800537109375;0.0009307861328125;-0.9951629638671875;
2024-10-12 23:15:40;1728764180.067834;faceUp;-0.0005950927734375;-0.001007080078125;-0.996002197265625;
2024-10-12 23:15:40;1728764180.117964;faceUp;-0.003631591796875;0.0008392333984375;-0.99859619140625;
2024-10-12 23:15:40;1728764180.167722;faceUp;-0.00152587890625;0.001434326171875;-0.9947967529296875;
2024-10-12 23:15:40;1728764180.2173;faceUp;-0.0006103515625;0.000732421875;-0.9966583251953125;
2024-10-12 23:15:40;1728764180.26759;faceUp;-0.0025177001953125;0.0003814697265625;-0.9968414306640625;
2024-10-12 23:15:40;1728764180.3172789;faceUp;-0.003082275390625;-0.0003204345703125;-0.99517822265625;
2024-10-12 23:15:40;1728764180.3672671;faceUp;-0.000823974609375;0.0013885498046875;-0.9974365234375;
2024-10-12 23:15:40;1728764180.417159;faceUp;-0.0003509521484375;0.0007476806640625;-0.9980926513671875;
2024-10-12 23:15:40;1728764180.4670591;faceUp;-0.0007476806640625;0.0007171630859375;-0.9934234619140625;
2024-10-12 23:15:40;1728764180.516691;faceUp;-0.0001373291015625;-0.0017852783203125;-0.999420166015625;
2024-10-12 23:15:40;1728764180.566883;faceUp;-0.002288818359375;7.62939453125e-05;-0.9950408935546875;
2024-10-12 23:15:40;1728764180.616687;faceUp;0.0007476806640625;0.01617431640625;-1.0153350830078125;
2024-10-12 23:15:40;1728764180.666517;faceUp;-0.0120697021484375;-0.042938232421875;-1.000579833984375;
