Date;Timestamp;DeviceOrientation;AccelerationX;AccelerationY;AccelerationZ;Label
2024-10-12 23:17:24;1728764244.345358;faceUp;0.118988037109375;-0.0213623046875;-0.977020263671875;
2024-10-12 23:17:24;1728764244.3486838;faceUp;0.0636444091796875;-0.0218658447265625;-1.00677490234375;
2024-10-12 23:17:24;1728764244.354899;faceUp;0.040252685546875;-0.01983642578125;-1.0287017822265625;
2024-10-12 23:17:24;1728764244.355259;faceUp;0.043121337890625;-0.02471923828125;-1.0071868896484375;
2024-10-12 23:17:24;1728764244.392771;faceUp;0.0738067626953125;-0.03863525390625;-0.9779815673828125;
2024-10-12 23:17:24;1728764244.4422178;faceUp;0.078521728515625;-0.0410003662109375;-0.983001708984375;
2024-10-12 23:17:24;1728764244.498849;faceUp;0.0740509033203125;-0.02374267578125;-0.98663330078125;
2024-10-12 23:17:24;1728764244.5421891;faceUp;0.04498291015625;0.000732421875;-0.98455810546875;
2024-10-12 23:17:24;1728764244.598294;faceUp;0.0394287109375;-0.0206451416015625;-0.99285888671875;
2024-10-12 23:17:24;1728764244.647606;faceUp;0.0475921630859375;-0.032379150390625;-0.9943084716796875;
2024-10-12 23:17:24;1728764244.7028031;faceUp;0.065277099609375;-0.044403076171875;-0.9874267578125;
2024-10-12 23:17:24;1728764244.742093;faceUp;0.062774658203125;-0.0447998046875;-1.0177459716796875;
2024-10-12 23:17:24;1728764244.799687;faceUp;0.0489044189453125;-0.0137939453125;-1.002899169921875;
2024-10-12 23:17:24;1728764244.842084;faceUp;0.06060791015625;-0.0175933837890625;-0.996734619140625;
2024-10-12 23:17:24;1728764244.899236;faceUp;0.0782012939453125;-0.0222015380859375;-0.96734619140625;
2024-10-12 23:17:24;1728764244.950635;faceUp;0.064544677734375;-0.0506134033203125;-0.9893035888671875;
2024-10-12 23:17:24;1728764244.998131;faceUp;0.04864501953125;-0.0582275390625;-1.00140380859375;
2024-10-12 23:17:24;1728764245.0488691;faceUp;0.0362396240234375;-0.0673980712890625;-0.993194580078125;
2024-10-12 23:17:24;1728764245.099298;faceUp;0.0422210693359375;-0.0619964599609375;-0.9989776611328125;
2024-10-12 23:17:24;1728764245.147999;faceUp;0.0354766845703125;-0.06298828125;-0.9942626953125;
2024-10-12 23:17:24;1728764245.197297;faceUp;0.0425872802734375;-0.0628814697265625;-0.9809722900390625;
2024-10-12 23:17:24;1728764245.249435;faceUp;0.0308837890625;-0.0579681396484375;-1.0005340576171875;
2024-10-12 23:17:24;1728764245.2983022;faceUp;0.0188751220703125;-0.0512542724609375;-0.9931640625;
2024-10-12 23:17:24;1728764245.3501391;faceUp;0.040435791015625;-0.068328857421875;-0.980499267578125;
2024-10-12 23:17:24;1728764245.389993;faceUp;0.050079345703125;-0.06488037109375;-0.9891510009765625;
2024-10-12 23:17:24;1728764245.439717;faceUp;0.0428619384765625;-0.0570220947265625;-1.01080322265625;
2024-10-12 23:17:24;1728764245.4970798;faceUp;0.04913330078125;-0.05950927734375;-0.99981689453125;
2024-10-12 23:17:24;1728764245.546376;faceUp;0.0372161865234375;-0.0540924072265625;-0.9964599609375;
2024-10-12 23:17:24;1728764245.6016011;faceUp;0.0325164794921875;-0.0593109130859375;-0.996185302734375;
2024-10-12 23:17:24;1728764245.6491032;faceUp;0.044708251953125;-0.0692138671875;-0.9849853515625;
2024-10-12 23:17:24;1728764245.689331;faceUp;0.0419464111328125;-0.06439208984375;-0.99017333984375;
2024-10-12 23:17:24;1728764245.7470999;faceUp;0.0360565185546875;-0.053985595703125;-0.994964599609375;
2024-10-12 23:17:24;1728764245.7890139;faceUp;0.0325469970703125;-0.0576629638671875;-1.0052032470703125;
2024-10-12 23:17:24;1728764245.8457232;faceUp;0.021453857421875;-0.0591888427734375;-0.997894287109375;
2024-10-12 23:17:24;1728764245.889893;faceUp;0.021026611328125;-0.0597686767578125;-0.9892730712890625;
2024-10-12 23:17:24;1728764245.938795;faceUp;0.014495849609375;-0.06304931640625;-0.996856689453125;
2024-10-12 23:17:24;1728764245.992517;faceUp;0.0202484130859375;-0.0691070556640625;-1.000152587890625;
2024-10-12 23:17:24;1728764246.04635;faceUp;0.03375244140625;-0.064117431640625;-0.996551513671875;
2024-10-12 23:17:24;1728764246.0968099;faceUp;0.0233306884765625;-0.058074951171875;-0.9987945556640625;
2024-10-12 23:17:24;1728764246.147159;faceUp;0.024871826171875;-0.0592498779296875;-0.98681640625;
2024-10-12 23:17:24;1728764246.196871;faceUp;0.035003662109375;-0.0634765625;-0.98846435546875;
2024-10-12 23:17:24;1728764246.2466831;faceUp;0.0314178466796875;-0.0601654052734375;-0.9939422607421875;
2024-10-12 23:17:24;1728764246.288235;faceUp;0.03662109375;-0.0579376220703125;-0.9914093017578125;
2024-10-12 23:17:24;1728764246.3451428;faceUp;0.03472900390625;-0.0562591552734375;-0.99365234375;
2024-10-12 23:17:24;1728764246.397204;faceUp;0.0352325439453125;-0.0487823486328125;-0.988433837890625;
2024-10-12 23:17:24;1728764246.446248;faceUp;0.0309906005859375;-0.052703857421875;-1.0019378662109375;
2024-10-12 23:17:24;1728764246.496863;faceUp;0.0225677490234375;-0.051422119140625;-0.998382568359375;
2024-10-12 23:17:24;1728764246.541432;faceUp;0.0260467529296875;-0.060638427734375;-0.990814208984375;
2024-10-12 23:17:24;1728764246.595046;faceUp;0.0165557861328125;-0.0453338623046875;-0.994171142578125;
2024-10-12 23:17:24;1728764246.645741;faceUp;0.0155792236328125;-0.0546875;-1.0006103515625;
2024-10-12 23:17:24;1728764246.687319;faceUp;0.0114898681640625;-0.0667266845703125;-1.0079193115234375;
2024-10-12 23:17:24;1728764246.7452068;faceUp;0.0131683349609375;-0.0555877685546875;-0.99884033203125;
2024-10-12 23:17:24;1728764246.795655;faceUp;0.0137939453125;-0.048736572265625;-0.9939117431640625;
2024-10-12 23:17:24;1728764246.8421202;faceUp;0.025848388671875;-0.0429534912109375;-0.989715576171875;
2024-10-12 23:17:24;1728764246.887062;faceUp;0.027801513671875;-0.0520782470703125;-0.99420166015625;
2024-10-12 23:17:24;1728764246.9404302;faceUp;0.0356597900390625;-0.0489501953125;-0.985321044921875;
2024-10-12 23:17:24;1728764246.99257;faceUp;0.0291748046875;-0.04833984375;-0.989990234375;
2024-10-12 23:17:24;1728764247.0450358;faceUp;0.0299835205078125;-0.04541015625;-1.0032196044921875;
2024-10-12 23:17:24;1728764247.095738;faceUp;0.0184783935546875;-0.05047607421875;-0.9976959228515625;
2024-10-12 23:17:24;1728764247.142309;faceUp;0.0193939208984375;-0.0584716796875;-0.9996337890625;
2024-10-12 23:17:24;1728764247.195581;faceUp;-0.0075225830078125;-0.052947998046875;-1.00311279296875;
2024-10-12 23:17:24;1728764247.2448602;faceUp;0.0117645263671875;-0.0655517578125;-0.99151611328125;
2024-10-12 23:17:24;1728764247.286079;faceUp;0.027191162109375;-0.072509765625;-0.98736572265625;
2024-10-12 23:17:24;1728764247.342829;faceUp;0.022613525390625;-0.06488037109375;-0.981689453125;
2024-10-12 23:17:24;1728764247.385841;faceUp;0.0215606689453125;-0.0537872314453125;-0.9832305908203125;
2024-10-12 23:17:24;1728764247.441622;faceUp;0.01318359375;-0.03515625;-1.0076446533203125;
2024-10-12 23:17:24;1728764247.485886;faceUp;0.0270233154296875;-0.0406646728515625;-1.000152587890625;
2024-10-12 23:17:24;1728764247.542757;faceUp;0.03076171875;-0.05096435546875;-0.9944305419921875;
2024-10-12 23:17:24;1728764247.591851;faceUp;-0.003570556640625;-0.0421295166015625;-1.0134735107421875;
2024-10-12 23:17:24;1728764247.6409369;faceUp;-0.017303466796875;-0.0471649169921875;-1.0016937255859375;
2024-10-12 23:17:24;1728764247.6856089;faceUp;-0.0235748291015625;-0.056060791015625;-0.985626220703125;
2024-10-12 23:17:24;1728764247.742742;faceUp;-0.003662109375;-0.060791015625;-0.973724365234375;
2024-10-12 23:17:24;1728764247.791121;faceUp;0.003387451171875;-0.0573272705078125;-0.994049072265625;
2024-10-12 23:17:24;1728764247.841573;faceUp;0.0045318603515625;-0.0602569580078125;-1.028839111328125;
2024-10-12 23:17:24;1728764247.891716;faceUp;0.0027923583984375;-0.0412445068359375;-1.0068206787109375;
2024-10-12 23:17:24;1728764247.942436;faceUp;-0.000396728515625;-0.057037353515625;-0.996856689453125;
2024-10-12 23:17:24;1728764247.991982;faceUp;0.017852783203125;-0.0652008056640625;-0.9673919677734375;
2024-10-12 23:17:24;1728764248.04287;faceUp;0.0029754638671875;-0.0672607421875;-0.9885711669921875;
2024-10-12 23:17:24;1728764248.091253;faceUp;0.016937255859375;-0.071624755859375;-0.99346923828125;
2024-10-12 23:17:24;1728764248.141955;faceUp;-0.001617431640625;-0.0623016357421875;-1.0149078369140625;
2024-10-12 23:17:24;1728764248.191602;faceUp;0.0121917724609375;-0.053863525390625;-1.0029144287109375;
2024-10-12 23:17:24;1728764248.239553;faceUp;0.00970458984375;-0.05938720703125;-0.9925537109375;
2024-10-12 23:17:24;1728764248.2916179;faceUp;-4.57763671875e-05;-0.0646820068359375;-0.9830169677734375;
2024-10-12 23:17:24;1728764248.340029;faceUp;0.01263427734375;-0.069732666015625;-0.977386474609375;
2024-10-12 23:17:24;1728764248.3892698;faceUp;0.03350830078125;-0.0654296875;-0.9895782470703125;
2024-10-12 23:17:24;1728764248.439355;faceUp;0.0166473388671875;-0.0495452880859375;-0.9988555908203125;
2024-10-12 23:17:24;1728764248.4904819;faceUp;0.0150909423828125;-0.0522613525390625;-1.001068115234375;
2024-10-12 23:17:24;1728764248.54088;faceUp;0.024383544921875;-0.0668182373046875;-0.9923095703125;
2024-10-12 23:17:24;1728764248.585428;faceUp;0.0221405029296875;-0.0688934326171875;-0.985809326171875;
2024-10-12 23:17:24;1728764248.6409612;faceUp;0.011627197265625;-0.0535888671875;-0.988525390625;
2024-10-12 23:17:24;1728764248.6909819;faceUp;0.012542724609375;-0.0689544677734375;-0.99993896484375;
2024-10-12 23:17:24;1728764248.74018;faceUp;-0.009124755859375;-0.0637359619140625;-1.0083770751953125;
2024-10-12 23:17:24;1728764248.790941;faceUp;-0.0067291259765625;-0.0890045166015625;-1.0035858154296875;
2024-10-12 23:17:24;1728764248.833894;faceUp;0.0386962890625;-0.0992431640625;-0.9905242919921875;
2024-10-12 23:17:24;1728764248.890789;faceUp;0.019622802734375;-0.0716094970703125;-0.9933624267578125;
2024-10-12 23:17:24;1728764248.934363;faceUp;0.019744873046875;-0.05609130859375;-0.9895172119140625;
2024-10-12 23:17:24;1728764248.99056;faceUp;0.0079193115234375;-0.0616607666015625;-1.001983642578125;
2024-10-12 23:17:24;1728764249.0398479;faceUp;0.0086517333984375;-0.0691680908203125;-0.9956512451171875;
2024-10-12 23:17:24;1728764249.091892;faceUp;0.0143890380859375;-0.086578369140625;-0.9801483154296875;
2024-10-12 23:17:24;1728764249.1339478;faceUp;-0.0422821044921875;-0.09783935546875;-0.994140625;
2024-10-12 23:17:24;1728764249.184505;faceUp;0.0106048583984375;-0.0857696533203125;-0.97711181640625;
2024-10-12 23:17:24;1728764249.234182;faceUp;0.0062713623046875;-0.0826416015625;-0.987060546875;
2024-10-12 23:17:24;1728764249.291757;faceUp;-0.0034332275390625;-0.0758514404296875;-1.001983642578125;
2024-10-12 23:17:24;1728764249.340523;faceUp;-0.0181732177734375;-0.082183837890625;-1.001800537109375;
2024-10-12 23:17:24;1728764249.3819308;faceUp;-0.014862060546875;-0.0932464599609375;-0.990264892578125;
2024-10-12 23:17:24;1728764249.4408898;faceUp;0.0025482177734375;-0.100067138671875;-0.9968109130859375;
2024-10-12 23:17:24;1728764249.492422;faceUp;-0.0223236083984375;-0.0852813720703125;-0.9900054931640625;
2024-10-12 23:17:24;1728764249.540267;faceUp;-0.015167236328125;-0.0762939453125;-0.9926300048828125;
2024-10-12 23:17:24;1728764249.5818539;faceUp;-0.0149078369140625;-0.074798583984375;-0.9962005615234375;
2024-10-12 23:17:24;1728764249.638634;faceUp;0.00640869140625;-0.0737762451171875;-0.98870849609375;
2024-10-12 23:17:24;1728764249.684867;faceUp;-0.0072021484375;-0.0704498291015625;-1.00689697265625;
2024-10-12 23:17:24;1728764249.739874;faceUp;-0.014007568359375;-0.060791015625;-1.0012359619140625;
2024-10-12 23:17:24;1728764249.789413;faceUp;-0.0006256103515625;-0.07061767578125;-0.9841766357421875;
2024-10-12 23:17:24;1728764249.839345;faceUp;-0.0003814697265625;-0.0743560791015625;-0.9917449951171875;
2024-10-12 23:17:24;1728764249.8903651;faceUp;-0.01068115234375;-0.06085205078125;-1.00177001953125;
2024-10-12 23:17:24;1728764249.9390988;faceUp;-0.0028076171875;-0.057342529296875;-0.98883056640625;
2024-10-12 23:17:24;1728764249.9879808;faceUp;-0.00128173828125;-0.063201904296875;-0.9982147216796875;
2024-10-12 23:17:24;1728764250.037493;faceUp;0.0018768310546875;-0.068450927734375;-1.0026092529296875;
2024-10-12 23:17:24;1728764250.089275;faceUp;0.0068511962890625;-0.0750885009765625;-0.9986114501953125;
2024-10-12 23:17:24;1728764250.138171;faceUp;-0.0032958984375;-0.0638427734375;-1.0027008056640625;
2024-10-12 23:17:24;1728764250.1889172;faceUp;0.0027618408203125;-0.0593414306640625;-0.9884490966796875;
2024-10-12 23:17:24;1728764250.2389488;faceUp;-0.0020294189453125;-0.0620574951171875;-0.98291015625;
2024-10-12 23:17:24;1728764250.289785;faceUp;-0.0074462890625;-0.07489013671875;-0.9867401123046875;
2024-10-12 23:17:24;1728764250.338346;faceUp;-0.000732421875;-0.07513427734375;-0.9922027587890625;
2024-10-12 23:17:24;1728764250.3873792;faceUp;0.0002899169921875;-0.0722198486328125;-0.989410400390625;
2024-10-12 23:17:24;1728764250.438016;faceUp;0.0030517578125;-0.0817718505859375;-0.9958343505859375;
2024-10-12 23:17:24;1728764250.488931;faceUp;0.0124664306640625;-0.0728759765625;-0.992401123046875;
2024-10-12 23:17:24;1728764250.535483;faceUp;0.0120697021484375;-0.0574188232421875;-0.9803009033203125;
2024-10-12 23:17:24;1728764250.5880141;faceUp;0.0066680908203125;-0.053436279296875;-0.9908447265625;
2024-10-12 23:17:24;1728764250.636938;faceUp;-0.003173828125;-0.064056396484375;-0.991302490234375;
2024-10-12 23:17:24;1728764250.686928;faceUp;-0.004364013671875;-0.0827178955078125;-0.998046875;
2024-10-12 23:17:24;1728764250.729494;faceUp;-0.01055908203125;-0.0850067138671875;-0.998870849609375;
2024-10-12 23:17:24;1728764250.779274;faceUp;0.007293701171875;-0.0792236328125;-0.989227294921875;
2024-10-12 23:17:24;1728764250.834646;faceUp;0.0081634521484375;-0.0709075927734375;-0.9923858642578125;
2024-10-12 23:17:24;1728764250.888517;faceUp;0.001922607421875;-0.0674896240234375;-0.996826171875;
2024-10-12 23:17:24;1728764250.938225;faceUp;-0.0070343017578125;-0.0604248046875;-0.9869232177734375;
2024-10-12 23:17:24;1728764250.98733;faceUp;0.0026092529296875;-0.0655975341796875;-0.9888916015625;
2024-10-12 23:17:24;1728764251.036117;faceUp;-0.0012969970703125;-0.05621337890625;-0.9923553466796875;
2024-10-12 23:17:24;1728764251.07906;faceUp;0.002197265625;-0.06121826171875;-0.997711181640625;
2024-10-12 23:17:24;1728764251.137291;faceUp;0.00079345703125;-0.0707855224609375;-0.996368408203125;
2024-10-12 23:17:24;1728764251.179545;faceUp;0.0001678466796875;-0.092376708984375;-1.0054779052734375;
2024-10-12 23:17:24;1728764251.236846;faceUp;-0.0072174072265625;-0.0924224853515625;-0.997467041015625;
2024-10-12 23:17:24;1728764251.27932;faceUp;-0.0015869140625;-0.0892486572265625;-1.0038299560546875;
2024-10-12 23:17:24;1728764251.329212;faceUp;-0.00225830078125;-0.07421875;-0.9904937744140625;
2024-10-12 23:17:24;1728764251.379187;faceUp;0.013214111328125;-0.07513427734375;-0.983184814453125;
2024-10-12 23:17:24;1728764251.428957;faceUp;0.015899658203125;-0.063995361328125;-0.9797821044921875;
2024-10-12 23:17:24;1728764251.478925;faceUp;0.007781982421875;-0.0662384033203125;-0.9846343994140625;
2024-10-12 23:17:24;1728764251.5295072;faceUp;0.0063018798828125;-0.08392333984375;-0.9949188232421875;
2024-10-12 23:17:24;1728764251.578995;faceUp;-0.0056610107421875;-0.0904693603515625;-1.0108642578125;
2024-10-12 23:17:24;1728764251.6277041;faceUp;-0.013397216796875;-0.079681396484375;-0.9931640625;
2024-10-12 23:17:24;1728764251.678478;faceUp;-0.0092926025390625;-0.07666015625;-0.9889373779296875;
2024-10-12 23:17:24;1728764251.7275171;faceUp;-0.0100860595703125;-0.0703582763671875;-0.983673095703125;
2024-10-12 23:17:24;1728764251.7784219;faceUp;0.0043792724609375;-0.0854034423828125;-0.9893646240234375;
2024-10-12 23:17:24;1728764251.8282561;faceUp;-0.01025390625;-0.0805206298828125;-1.0043792724609375;
2024-10-12 23:17:24;1728764251.878274;faceUp;-0.0109405517578125;-0.075439453125;-0.9940032958984375;
2024-10-12 23:17:24;1728764251.927907;faceUp;0.004119873046875;-0.0738677978515625;-0.9829254150390625;
2024-10-12 23:17:24;1728764251.977943;faceUp;-0.0059967041015625;-0.066192626953125;-1.0006561279296875;
2024-10-12 23:17:24;1728764252.027842;faceUp;-0.0021820068359375;-0.0659027099609375;-0.9958953857421875;
2024-10-12 23:17:24;1728764252.080659;faceUp;-0.0030059814453125;-0.0754852294921875;-0.9909210205078125;
2024-10-12 23:17:24;1728764252.127644;faceUp;-0.0017852783203125;-0.0777435302734375;-0.9916839599609375;
2024-10-12 23:17:24;1728764252.182105;faceUp;0.000244140625;-0.071563720703125;-0.9921875;
2024-10-12 23:17:24;1728764252.226523;faceUp;0.001251220703125;-0.0668182373046875;-0.9940643310546875;
2024-10-12 23:17:24;1728764252.286397;faceUp;0.001190185546875;-0.06329345703125;-0.9983367919921875;
2024-10-12 23:17:24;1728764252.33494;faceUp;-0.0015869140625;-0.0714111328125;-1.0011444091796875;
2024-10-12 23:17:24;1728764252.377018;faceUp;0.00103759765625;-0.0720062255859375;-0.9958953857421875;
2024-10-12 23:17:24;1728764252.432512;faceUp;0.0012359619140625;-0.0673370361328125;-0.9957427978515625;
2024-10-12 23:17:24;1728764252.4800339;faceUp;0.0011444091796875;-0.0653533935546875;-0.9980316162109375;
2024-10-12 23:17:24;1728764252.531663;faceUp;-7.62939453125e-05;-0.0535125732421875;-0.99603271484375;
2024-10-12 23:17:24;1728764252.576754;faceUp;0.0076751708984375;-0.062103271484375;-0.9812164306640625;
2024-10-12 23:17:24;1728764252.630763;faceUp;-0.0071258544921875;-0.0649261474609375;-0.988250732421875;
2024-10-12 23:17:24;1728764252.6841068;faceUp;-0.01239013671875;-0.06744384765625;-0.9896087646484375;
2024-10-12 23:17:24;1728764252.726396;faceUp;-0.014678955078125;-0.0745391845703125;-1.000640869140625;
2024-10-12 23:17:24;1728764252.78022;faceUp;-0.000396728515625;-0.0691375732421875;-0.9956207275390625;
2024-10-12 23:17:24;1728764252.830486;faceUp;-0.0046539306640625;-0.0552825927734375;-1.0009613037109375;
2024-10-12 23:17:24;1728764252.881013;faceUp;-0.00244140625;-0.048583984375;-0.9991302490234375;
2024-10-12 23:17:24;1728764252.925242;faceUp;-0.006744384765625;-0.0383453369140625;-0.993743896484375;
2024-10-12 23:17:24;1728764252.984577;faceUp;-0.025421142578125;-0.05755615234375;-0.9799957275390625;
2024-10-12 23:17:24;1728764253.032336;faceUp;-0.025787353515625;-0.08868408203125;-0.9880828857421875;
2024-10-12 23:17:24;1728764253.0805712;faceUp;-0.0408477783203125;-0.0734710693359375;-1.0184783935546875;
2024-10-12 23:17:24;1728764253.13223;faceUp;-0.0272216796875;-0.064483642578125;-1.0086212158203125;
2024-10-12 23:17:24;1728764253.181576;faceUp;-0.0104827880859375;-0.0466156005859375;-0.9835205078125;
2024-10-12 23:17:24;1728764253.22456;faceUp;-0.000946044921875;-0.0476837158203125;-0.983673095703125;
2024-10-12 23:17:24;1728764253.281512;faceUp;-0.0130157470703125;-0.04766845703125;-0.9934844970703125;
2024-10-12 23:17:24;1728764253.3311949;faceUp;-0.0393829345703125;-0.057159423828125;-1.0043182373046875;
2024-10-12 23:17:24;1728764253.375766;faceUp;-0.023284912109375;-0.06903076171875;-0.9734039306640625;
2024-10-12 23:17:24;1728764253.431026;faceUp;-0.0221099853515625;-0.0707855224609375;-1.002593994140625;
2024-10-12 23:17:24;1728764253.480808;faceUp;-0.024627685546875;-0.047698974609375;-0.9958953857421875;
2024-10-12 23:17:24;1728764253.523927;faceUp;-0.0155181884765625;-0.0514373779296875;-0.9978179931640625;
2024-10-12 23:17:24;1728764253.580219;faceUp;-0.0208892822265625;-0.0573577880859375;-0.9991912841796875;
2024-10-12 23:17:24;1728764253.625212;faceUp;-0.0196990966796875;-0.0630340576171875;-0.9993133544921875;
2024-10-12 23:17:24;1728764253.681936;faceUp;-0.0205078125;-0.059234619140625;-1.011383056640625;
2024-10-12 23:17:24;1728764253.730068;faceUp;-0.0244598388671875;-0.058990478515625;-0.9997406005859375;
2024-10-12 23:17:24;1728764253.781052;faceUp;-0.0112762451171875;-0.0704345703125;-0.9855499267578125;
2024-10-12 23:17:24;1728764253.830116;faceUp;-0.02166748046875;-0.0642852783203125;-0.9787445068359375;
2024-10-12 23:17:24;1728764253.8843741;faceUp;-0.0117950439453125;-0.0664520263671875;-0.991973876953125;
2024-10-12 23:17:24;1728764253.929955;faceUp;-0.0443572998046875;-0.05133056640625;-1.00372314453125;
2024-10-12 23:17:24;1728764253.981247;faceUp;-0.0289306640625;-0.0673675537109375;-0.986297607421875;
2024-10-12 23:17:24;1728764254.029494;faceUp;-0.029754638671875;-0.0681915283203125;-1.00006103515625;
2024-10-12 23:17:24;1728764254.081331;faceUp;-0.0193939208984375;-0.0702667236328125;-1.0005645751953125;
2024-10-12 23:17:24;1728764254.128196;faceUp;-0.0215301513671875;-0.065673828125;-1.000701904296875;
2024-10-12 23:17:24;1728764254.1801162;faceUp;0.0001068115234375;-0.063446044921875;-0.98785400390625;
2024-10-12 23:17:24;1728764254.229968;faceUp;0.0331878662109375;-0.0553131103515625;-0.9796600341796875;
2024-10-12 23:17:24;1728764254.280746;faceUp;0.0081939697265625;-0.03973388671875;-0.997161865234375;
2024-10-12 23:17:24;1728764254.323186;faceUp;-0.0095672607421875;-0.0612945556640625;-0.998260498046875;
2024-10-12 23:17:24;1728764254.375036;faceUp;-0.021270751953125;-0.0815887451171875;-0.991180419921875;
2024-10-12 23:17:24;1728764254.4298139;faceUp;-0.01239013671875;-0.0859375;-0.988677978515625;
2024-10-12 23:17:24;1728764254.480355;faceUp;-0.0203094482421875;-0.06884765625;-0.996826171875;
2024-10-12 23:17:24;1728764254.5307698;faceUp;-0.0207977294921875;-0.0614471435546875;-0.99664306640625;
2024-10-12 23:17:24;1728764254.5788012;faceUp;0.006378173828125;-0.0770263671875;-0.99530029296875;
2024-10-12 23:17:24;1728764254.6288571;faceUp;-0.0229034423828125;-0.07025146484375;-1.0022735595703125;
2024-10-12 23:17:24;1728764254.67924;faceUp;-0.012786865234375;-0.083282470703125;-0.98358154296875;
2024-10-12 23:17:24;1728764254.7239819;faceUp;-0.006378173828125;-0.0856781005859375;-0.991302490234375;
2024-10-12 23:17:24;1728764254.7794142;faceUp;-0.0183563232421875;-0.0701446533203125;-0.9940643310546875;
2024-10-12 23:17:24;1728764254.829259;faceUp;0.0128631591796875;-0.069061279296875;-0.9821014404296875;
2024-10-12 23:17:24;1728764254.879298;faceUp;0.012969970703125;-0.0600128173828125;-0.992095947265625;
2024-10-12 23:17:24;1728764254.9299722;faceUp;0.0035400390625;-0.0636749267578125;-1.002410888671875;
2024-10-12 23:17:24;1728764254.978924;faceUp;0.0042877197265625;-0.071868896484375;-0.9967803955078125;
2024-10-12 23:17:24;1728764255.029407;faceUp;-0.0120086669921875;-0.0727996826171875;-0.9973602294921875;
2024-10-12 23:17:24;1728764255.07814;faceUp;0.00946044921875;-0.077178955078125;-0.9807891845703125;
2024-10-12 23:17:24;1728764255.128262;faceUp;0.000701904296875;-0.0660400390625;-0.9990386962890625;
2024-10-12 23:17:24;1728764255.179819;faceUp;0.0037689208984375;-0.0578460693359375;-0.9870758056640625;
2024-10-12 23:17:24;1728764255.220628;faceUp;-0.00390625;-0.05108642578125;-0.9909515380859375;
2024-10-12 23:17:24;1728764255.279253;faceUp;-0.007568359375;-0.058685302734375;-0.991455078125;
2024-10-12 23:17:24;1728764255.329193;faceUp;-0.005279541015625;-0.068328857421875;-0.9951171875;
2024-10-12 23:17:24;1728764255.371348;faceUp;-0.0152587890625;-0.05755615234375;-1.008758544921875;
2024-10-12 23:17:24;1728764255.420319;faceUp;-0.0116729736328125;-0.0548858642578125;-1.00836181640625;
2024-10-12 23:17:24;1728764255.470049;faceUp;-0.0051422119140625;-0.0371856689453125;-0.996368408203125;
2024-10-12 23:17:24;1728764255.527285;faceUp;-0.0101470947265625;-0.0298309326171875;-1.0142974853515625;
2024-10-12 23:17:24;1728764255.578615;faceUp;-0.0099639892578125;-0.050048828125;-0.9964599609375;
2024-10-12 23:17:24;1728764255.628683;faceUp;-0.0145111083984375;-0.066314697265625;-0.978668212890625;
2024-10-12 23:17:24;1728764255.671026;faceUp;-0.022796630859375;-0.072357177734375;-0.9714813232421875;
2024-10-12 23:17:24;1728764255.728321;faceUp;-0.04241943359375;-0.084442138671875;-0.9894561767578125;
2024-10-12 23:17:24;1728764255.778071;faceUp;-0.05560302734375;-0.080322265625;-1.001556396484375;
2024-10-12 23:17:24;1728764255.827548;faceUp;-0.05267333984375;-0.0879974365234375;-0.9890594482421875;
2024-10-12 23:17:24;1728764255.877637;faceUp;-0.039398193359375;-0.0815582275390625;-0.981170654296875;
2024-10-12 23:17:24;1728764255.928319;faceUp;-0.0225982666015625;-0.0731201171875;-0.9996490478515625;
2024-10-12 23:17:24;1728764255.975164;faceUp;-0.0040283203125;-0.075897216796875;-0.9913330078125;
2024-10-12 23:17:24;1728764256.024955;faceUp;-0.00018310546875;-0.05828857421875;-0.9949188232421875;
2024-10-12 23:17:24;1728764256.07728;faceUp;0.0028533935546875;-0.053985595703125;-1.0020904541015625;
2024-10-12 23:17:24;1728764256.1186972;faceUp;0.00872802734375;-0.0605010986328125;-0.9980621337890625;
2024-10-12 23:17:24;1728764256.1777139;faceUp;-0.00640869140625;-0.0516510009765625;-1.0028076171875;
2024-10-12 23:17:24;1728764256.2267509;faceUp;0.00164794921875;-0.0667572021484375;-0.984375;
2024-10-12 23:17:24;1728764256.277091;faceUp;-0.0108489990234375;-0.0715484619140625;-0.9949951171875;
2024-10-12 23:17:24;1728764256.32732;faceUp;-0.01409912109375;-0.0773162841796875;-0.99517822265625;
2024-10-12 23:17:24;1728764256.3692222;faceUp;-0.005615234375;-0.0782318115234375;-0.9974365234375;
2024-10-12 23:17:24;1728764256.425315;faceUp;-0.0110931396484375;-0.061431884765625;-0.9960174560546875;
2024-10-12 23:17:24;1728764256.4774132;faceUp;-0.00616455078125;-0.0679779052734375;-0.9909820556640625;
2024-10-12 23:17:24;1728764256.526822;faceUp;-0.0108489990234375;-0.0697784423828125;-0.99090576171875;
2024-10-12 23:17:24;1728764256.576417;faceUp;-0.008056640625;-0.06781005859375;-0.993408203125;
2024-10-12 23:17:24;1728764256.626271;faceUp;0.0073394775390625;-0.0776824951171875;-0.9835357666015625;
2024-10-12 23:17:24;1728764256.674951;faceUp;-0.0088043212890625;-0.0596466064453125;-1.0038909912109375;
2024-10-12 23:17:24;1728764256.725292;faceUp;-0.0084381103515625;-0.062957763671875;-0.9978485107421875;
2024-10-12 23:17:24;1728764256.775693;faceUp;-0.006195068359375;-0.0748291015625;-0.9927215576171875;
2024-10-12 23:17:24;1728764256.826559;faceUp;-0.0282440185546875;-0.071685791015625;-1.0027313232421875;
2024-10-12 23:17:24;1728764256.875329;faceUp;-0.012664794921875;-0.088592529296875;-0.9886474609375;
2024-10-12 23:17:24;1728764256.92562;faceUp;-0.00762939453125;-0.0727996826171875;-0.98638916015625;
2024-10-12 23:17:24;1728764256.9670691;faceUp;-0.002044677734375;-0.0611114501953125;-0.9897003173828125;
2024-10-12 23:17:24;1728764257.0250912;faceUp;0.0088653564453125;-0.063629150390625;-0.9914093017578125;
2024-10-12 23:17:24;1728764257.0752258;faceUp;-0.008056640625;-0.06207275390625;-1.0;
2024-10-12 23:17:24;1728764257.11674;faceUp;-0.00665283203125;-0.07611083984375;-0.9931488037109375;
2024-10-12 23:17:24;1728764257.1699328;faceUp;-0.007598876953125;-0.0717620849609375;-0.9947357177734375;
2024-10-12 23:17:24;1728764257.225096;faceUp;-0.004791259765625;-0.064117431640625;-0.99383544921875;
2024-10-12 23:17:24;1728764257.274397;faceUp;-7.62939453125e-05;-0.06597900390625;-0.9912109375;
2024-10-12 23:17:24;1728764257.3211188;faceUp;-0.0066680908203125;-0.0655059814453125;-0.99859619140625;
2024-10-12 23:17:24;1728764257.368256;faceUp;0.0074005126953125;-0.074127197265625;-0.994384765625;
2024-10-12 23:17:24;1728764257.424341;faceUp;0.005096435546875;-0.0677032470703125;-0.998321533203125;
2024-10-12 23:17:24;1728764257.474749;faceUp;-0.0047149658203125;-0.056640625;-0.9940032958984375;
2024-10-12 23:17:24;1728764257.5249848;faceUp;0.00433349609375;-0.06982421875;-0.990753173828125;
2024-10-12 23:17:24;1728764257.570421;faceUp;-0.007843017578125;-0.0705413818359375;-0.9961395263671875;
2024-10-12 23:17:24;1728764257.6209111;faceUp;0.0006866455078125;-0.075286865234375;-0.990234375;
2024-10-12 23:17:24;1728764257.6711168;faceUp;-0.002777099609375;-0.062744140625;-1.002105712890625;
2024-10-12 23:17:24;1728764257.723938;faceUp;0.0001373291015625;-0.0643157958984375;-0.9893035888671875;
2024-10-12 23:17:24;1728764257.774473;faceUp;-0.0059814453125;-0.071441650390625;-0.9867401123046875;
2024-10-12 23:17:24;1728764257.820612;faceUp;-0.0132598876953125;-0.0803070068359375;-0.9965362548828125;
2024-10-12 23:17:24;1728764257.872034;faceUp;-0.0124664306640625;-0.074737548828125;-0.990264892578125;
2024-10-12 23:17:24;1728764257.923383;faceUp;-0.003662109375;-0.06781005859375;-0.997039794921875;
2024-10-12 23:17:24;1728764257.971877;faceUp;-0.00457763671875;-0.0665283203125;-0.9909515380859375;
2024-10-12 23:17:24;1728764258.020019;faceUp;0.0065765380859375;-0.067047119140625;-0.9857330322265625;
2024-10-12 23:17:24;1728764258.071233;faceUp;-0.0068817138671875;-0.0703887939453125;-1.004638671875;
2024-10-12 23:17:24;1728764258.115017;faceUp;-0.0082550048828125;-0.076202392578125;-0.998016357421875;
2024-10-12 23:17:24;1728764258.171204;faceUp;-0.0024566650390625;-0.074920654296875;-0.9938507080078125;
2024-10-12 23:17:24;1728764258.223034;faceUp;-0.006103515625;-0.0631103515625;-0.99072265625;
2024-10-12 23:17:24;1728764258.272284;faceUp;0.004425048828125;-0.0813140869140625;-0.991363525390625;
2024-10-12 23:17:24;1728764258.3212628;faceUp;-0.0020599365234375;-0.0721435546875;-0.996673583984375;
2024-10-12 23:17:24;1728764258.368226;faceUp;-0.00775146484375;-0.0791778564453125;-0.99908447265625;
2024-10-12 23:17:24;1728764258.4201941;faceUp;-0.0010833740234375;-0.0784149169921875;-0.9847259521484375;
2024-10-12 23:17:24;1728764258.469414;faceUp;-0.00677490234375;-0.072418212890625;-1.0000457763671875;
2024-10-12 23:17:24;1728764258.521123;faceUp;-0.00732421875;-0.082122802734375;-0.9828033447265625;
2024-10-12 23:17:24;1728764258.570784;faceUp;0.004425048828125;-0.0851287841796875;-0.99755859375;
2024-10-12 23:17:24;1728764258.619872;faceUp;-0.0069732666015625;-0.0713348388671875;-1.00238037109375;
2024-10-12 23:17:24;1728764258.669948;faceUp;0.0085906982421875;-0.067352294921875;-0.9788818359375;
2024-10-12 23:17:24;1728764258.720784;faceUp;-0.001312255859375;-0.0747528076171875;-0.9873504638671875;
2024-10-12 23:17:24;1728764258.7697248;faceUp;-0.0081939697265625;-0.0905914306640625;-0.9973297119140625;
2024-10-12 23:17:24;1728764258.820551;faceUp;-0.017486572265625;-0.093658447265625;-0.99957275390625;
2024-10-12 23:17:24;1728764258.8705258;faceUp;-0.013031005859375;-0.089874267578125;-1.0037841796875;
2024-10-12 23:17:24;1728764258.9189181;faceUp;0.000946044921875;-0.0791473388671875;-0.9829559326171875;
2024-10-12 23:17:24;1728764258.9714022;faceUp;0.002655029296875;-0.068939208984375;-0.9787750244140625;
2024-10-12 23:17:24;1728764259.021013;faceUp;0.01849365234375;-0.080810546875;-0.98187255859375;
2024-10-12 23:17:24;1728764259.071136;faceUp;-0.00311279296875;-0.071258544921875;-0.994049072265625;
2024-10-12 23:17:24;1728764259.118408;faceUp;-0.000457763671875;-0.1014556884765625;-0.996490478515625;
2024-10-12 23:17:24;1728764259.1707711;faceUp;-0.010589599609375;-0.1003570556640625;-1.0014190673828125;
2024-10-12 23:17:24;1728764259.2145472;faceUp;-0.0021820068359375;-0.092742919921875;-0.99847412109375;
2024-10-12 23:17:24;1728764259.269458;faceUp;0.0150299072265625;-0.0816802978515625;-0.98553466796875;
2024-10-12 23:17:24;1728764259.321146;faceUp;0.0129852294921875;-0.0667877197265625;-0.9886322021484375;
2024-10-12 23:17:24;1728764259.3703809;faceUp;0.000244140625;-0.077362060546875;-0.99542236328125;
2024-10-12 23:17:24;1728764259.42073;faceUp;-0.00408935546875;-0.0904998779296875;-0.98675537109375;
2024-10-12 23:17:24;1728764259.470788;faceUp;-0.009613037109375;-0.09625244140625;-0.9977569580078125;
2024-10-12 23:17:24;1728764259.52023;faceUp;0.00030517578125;-0.0910797119140625;-0.9947509765625;
2024-10-12 23:17:24;1728764259.5693169;faceUp;-7.62939453125e-05;-0.0799713134765625;-0.993408203125;
2024-10-12 23:17:24;1728764259.612076;faceUp;-0.000823974609375;-0.0785064697265625;-0.9921722412109375;
2024-10-12 23:17:24;1728764259.6699638;faceUp;0.0008697509765625;-0.0850677490234375;-0.9926910400390625;
2024-10-12 23:17:24;1728764259.7206311;faceUp;-0.002471923828125;-0.085845947265625;-0.9939727783203125;
2024-10-12 23:17:24;1728764259.762321;faceUp;0.004150390625;-0.0893707275390625;-0.9835052490234375;
2024-10-12 23:17:24;1728764259.8197808;faceUp;0.001007080078125;-0.0862274169921875;-0.9844512939453125;
2024-10-12 23:17:24;1728764259.869804;faceUp;-0.00384521484375;-0.0809783935546875;-0.9966278076171875;
2024-10-12 23:17:24;1728764259.912369;faceUp;-0.0005645751953125;-0.0824737548828125;-0.992462158203125;
2024-10-12 23:17:24;1728764259.96237;faceUp;-0.0062255859375;-0.0801544189453125;-0.990936279296875;
2024-10-12 23:17:24;1728764260.0122619;faceUp;0.004669189453125;-0.088531494140625;-0.997772216796875;
2024-10-12 23:17:24;1728764260.062386;faceUp;-0.003143310546875;-0.082427978515625;-0.992950439453125;
2024-10-12 23:17:24;1728764260.112073;faceUp;0.0090484619140625;-0.090362548828125;-0.9894256591796875;
2024-10-12 23:17:24;1728764260.161768;faceUp;0.007537841796875;-0.0808563232421875;-0.9934234619140625;
2024-10-12 23:17:24;1728764260.2107282;faceUp;-0.003997802734375;-0.074462890625;-1.0024566650390625;
2024-10-12 23:17:24;1728764260.26161;faceUp;0.0056610107421875;-0.089813232421875;-0.981231689453125;
2024-10-12 23:17:24;1728764260.3114638;faceUp;-0.010986328125;-0.0914459228515625;-0.9988861083984375;
2024-10-12 23:17:24;1728764260.361428;faceUp;-0.011932373046875;-0.089111328125;-0.9897003173828125;
2024-10-12 23:17:24;1728764260.411241;faceUp;-0.0060577392578125;-0.087493896484375;-0.989898681640625;
2024-10-12 23:17:24;1728764260.461154;faceUp;-0.01141357421875;-0.0811920166015625;-0.9981231689453125;
2024-10-12 23:17:24;1728764260.510697;faceUp;0.0042724609375;-0.08026123046875;-0.9805755615234375;
2024-10-12 23:17:24;1728764260.560888;faceUp;0.0022430419921875;-0.08074951171875;-0.993011474609375;
2024-10-12 23:17:24;1728764260.610828;faceUp;-0.0053863525390625;-0.08349609375;-1.0003204345703125;
2024-10-12 23:17:24;1728764260.660517;faceUp;-0.0062103271484375;-0.0874176025390625;-0.9874725341796875;
2024-10-12 23:17:24;1728764260.710833;faceUp;-0.00518798828125;-0.090057373046875;-0.9838714599609375;
2024-10-12 23:17:24;1728764260.760508;faceUp;-0.0006561279296875;-0.0834503173828125;-1.0013580322265625;
2024-10-12 23:17:24;1728764260.810648;faceUp;-0.000579833984375;-0.0796051025390625;-0.991424560546875;
2024-10-12 23:17:24;1728764260.860454;faceUp;0.0059967041015625;-0.0859375;-1.00006103515625;
2024-10-12 23:17:24;1728764260.917316;faceUp;-0.0101470947265625;-0.084014892578125;-0.9915618896484375;
2024-10-12 23:17:24;1728764260.968524;faceUp;-0.000518798828125;-0.085296630859375;-0.983367919921875;
2024-10-12 23:17:24;1728764261.017833;faceUp;-0.0016326904296875;-0.088104248046875;-0.993865966796875;
2024-10-12 23:17:24;1728764261.05899;faceUp;-0.021697998046875;-0.0878753662109375;-1.0102386474609375;
2024-10-12 23:17:24;1728764261.1179318;faceUp;-0.010711669921875;-0.0943450927734375;-0.9944305419921875;
2024-10-12 23:17:24;1728764261.166761;faceUp;0.0028533935546875;-0.0854949951171875;-0.9775848388671875;
2024-10-12 23:17:24;1728764261.208843;faceUp;0.001708984375;-0.078643798828125;-0.99169921875;
2024-10-12 23:17:24;1728764261.26719;faceUp;-0.013763427734375;-0.0772552490234375;-1.0004119873046875;
2024-10-12 23:17:24;1728764261.316179;faceUp;0.0018157958984375;-0.0953826904296875;-0.988250732421875;
2024-10-12 23:17:24;1728764261.3645859;faceUp;0.0020751953125;-0.094635009765625;-0.9941253662109375;
2024-10-12 23:17:24;1728764261.409569;faceUp;0.0047149658203125;-0.0894012451171875;-0.9960174560546875;
2024-10-12 23:17:24;1728764261.4674;faceUp;0.021575927734375;-0.0832061767578125;-0.9851837158203125;
2024-10-12 23:17:24;1728764261.514452;faceUp;0.0126953125;-0.0716705322265625;-0.9914703369140625;
2024-10-12 23:17:24;1728764261.565651;faceUp;0.021148681640625;-0.086883544921875;-0.9803924560546875;
2024-10-12 23:17:24;1728764261.608057;faceUp;0.010406494140625;-0.0872802734375;-0.990142822265625;
2024-10-12 23:17:24;1728764261.665429;faceUp;0.00726318359375;-0.09112548828125;-0.9983367919921875;
2024-10-12 23:17:24;1728764261.7122378;faceUp;0.0070037841796875;-0.083770751953125;-0.9926300048828125;
2024-10-12 23:17:24;1728764261.766041;faceUp;0.001617431640625;-0.089263916015625;-1.0011138916015625;
2024-10-12 23:17:24;1728764261.816333;faceUp;0.018341064453125;-0.091766357421875;-0.99072265625;
2024-10-12 23:17:24;1728764261.866163;faceUp;0.022918701171875;-0.08734130859375;-0.9918212890625;
2024-10-12 23:17:24;1728764261.915122;faceUp;0.0068511962890625;-0.0867767333984375;-0.9947357177734375;
2024-10-12 23:17:24;1728764261.9584;faceUp;0.0049591064453125;-0.09521484375;-0.9880218505859375;
2024-10-12 23:17:24;1728764262.0073571;faceUp;0.0105133056640625;-0.0998077392578125;-0.991943359375;
2024-10-12 23:17:24;1728764262.0655432;faceUp;0.00311279296875;-0.089385986328125;-1.0013275146484375;
2024-10-12 23:17:24;1728764262.114181;faceUp;-0.0021820068359375;-0.09466552734375;-0.99847412109375;
2024-10-12 23:17:24;1728764262.164326;faceUp;0.0101470947265625;-0.103515625;-0.9819793701171875;
2024-10-12 23:17:24;1728764262.206893;faceUp;0.003997802734375;-0.091827392578125;-0.9944305419921875;
2024-10-12 23:17:24;1728764262.264721;faceUp;-0.00079345703125;-0.0876922607421875;-0.9951171875;
2024-10-12 23:17:24;1728764262.314196;faceUp;0.01507568359375;-0.1034698486328125;-0.9862518310546875;
2024-10-12 23:17:24;1728764262.364581;faceUp;0.0157012939453125;-0.09576416015625;-0.989593505859375;
2024-10-12 23:17:24;1728764262.407724;faceUp;0.0245819091796875;-0.0926055908203125;-0.9958038330078125;
2024-10-12 23:17:24;1728764262.465087;faceUp;0.0112762451171875;-0.082183837890625;-0.996826171875;
2024-10-12 23:17:24;1728764262.511002;faceUp;0.0158843994140625;-0.094757080078125;-0.99005126953125;
2024-10-12 23:17:24;1728764262.561469;faceUp;0.0231781005859375;-0.0975189208984375;-0.9837799072265625;
2024-10-12 23:17:24;1728764262.611943;faceUp;0.0244140625;-0.0931854248046875;-0.9853363037109375;
2024-10-12 23:17:24;1728764262.662127;faceUp;0.014434814453125;-0.084197998046875;-0.999847412109375;
2024-10-12 23:17:24;1728764262.715224;faceUp;0.0045318603515625;-0.089599609375;-0.994476318359375;
2024-10-12 23:17:24;1728764262.7611752;faceUp;0.010528564453125;-0.1016693115234375;-0.9839630126953125;
2024-10-12 23:17:24;1728764262.8115711;faceUp;-0.0059661865234375;-0.0867919921875;-0.997222900390625;
2024-10-12 23:17:24;1728764262.86047;faceUp;-0.008453369140625;-0.0887603759765625;-0.994049072265625;
2024-10-12 23:17:24;1728764262.909004;faceUp;0.009490966796875;-0.09564208984375;-0.9911346435546875;
2024-10-12 23:17:24;1728764262.964134;faceUp;0.008056640625;-0.088897705078125;-0.9899749755859375;
2024-10-12 23:17:24;1728764263.011448;faceUp;0.0116119384765625;-0.08740234375;-0.996307373046875;
2024-10-12 23:17:24;1728764263.062248;faceUp;-0.003570556640625;-0.08416748046875;-1.000732421875;
2024-10-12 23:17:24;1728764263.1119761;faceUp;0.0046844482421875;-0.0954437255859375;-0.992645263671875;
2024-10-12 23:17:24;1728764263.1617022;faceUp;0.0009002685546875;-0.0915374755859375;-0.99041748046875;
2024-10-12 23:17:24;1728764263.204825;faceUp;0.0033111572265625;-0.093994140625;-0.9891510009765625;
2024-10-12 23:17:24;1728764263.261308;faceUp;-0.00177001953125;-0.09307861328125;-0.995513916015625;
2024-10-12 23:17:24;1728764263.3111901;faceUp;-0.0052947998046875;-0.092803955078125;-0.99505615234375;
2024-10-12 23:17:24;1728764263.361085;faceUp;0.0165863037109375;-0.100006103515625;-0.9767303466796875;
2024-10-12 23:17:24;1728764263.407401;faceUp;0.0104522705078125;-0.0881805419921875;-0.9968414306640625;
2024-10-12 23:17:24;1728764263.460186;faceUp;0.0106048583984375;-0.0814361572265625;-0.9866485595703125;
2024-10-12 23:17:24;1728764263.510119;faceUp;0.0084075927734375;-0.088104248046875;-0.9899749755859375;
2024-10-12 23:17:24;1728764263.5609179;faceUp;-0.0063018798828125;-0.091094970703125;-0.989898681640625;
2024-10-12 23:17:24;1728764263.609729;faceUp;0.0002593994140625;-0.109527587890625;-0.9903717041015625;
2024-10-12 23:17:24;1728764263.661164;faceUp;-0.003662109375;-0.098876953125;-0.9998321533203125;
2024-10-12 23:17:24;1728764263.710443;faceUp;-0.003692626953125;-0.08148193359375;-1.0130462646484375;
2024-10-12 23:17:24;1728764263.7612891;faceUp;0.01116943359375;-0.09173583984375;-0.9791107177734375;
2024-10-12 23:17:24;1728764263.808426;faceUp;-0.002288818359375;-0.0992279052734375;-0.989501953125;
2024-10-12 23:17:24;1728764263.860334;faceUp;0.0016632080078125;-0.1016998291015625;-0.988739013671875;
2024-10-12 23:17:24;1728764263.909158;faceUp;0.010040283203125;-0.0877532958984375;-0.99334716796875;
2024-10-12 23:17:24;1728764263.9605808;faceUp;0.013427734375;-0.0791168212890625;-0.993377685546875;
2024-10-12 23:17:24;1728764264.011424;faceUp;0.004425048828125;-0.0832672119140625;-1.002227783203125;
2024-10-12 23:17:24;1728764264.0606298;faceUp;0.008087158203125;-0.1057891845703125;-0.992645263671875;
2024-10-12 23:17:24;1728764264.111559;faceUp;0.0002593994140625;-0.0964202880859375;-0.999908447265625;
2024-10-12 23:17:24;1728764264.161446;faceUp;-0.0041656494140625;-0.0794525146484375;-1.000396728515625;
2024-10-12 23:17:24;1728764264.211018;faceUp;0.007080078125;-0.0868988037109375;-0.9792327880859375;
2024-10-12 23:17:24;1728764264.254029;faceUp;0.0086212158203125;-0.0957794189453125;-0.9845428466796875;
2024-10-12 23:17:24;1728764264.311017;faceUp;0.0017852783203125;-0.0973358154296875;-0.992462158203125;
2024-10-12 23:17:24;1728764264.3604279;faceUp;0.007965087890625;-0.096771240234375;-1.004150390625;
2024-10-12 23:17:24;1728764264.411481;faceUp;-0.003936767578125;-0.0828399658203125;-1.0001373291015625;
2024-10-12 23:17:24;1728764264.459544;faceUp;0.003509521484375;-0.08880615234375;-0.9857177734375;
2024-10-12 23:17:24;1728764264.509818;faceUp;0.002044677734375;-0.09161376953125;-0.980438232421875;
2024-10-12 23:17:24;1728764264.5595632;faceUp;0.010345458984375;-0.094970703125;-0.9860992431640625;
2024-10-12 23:17:24;1728764264.607887;faceUp;0.0030364990234375;-0.087188720703125;-1.0045318603515625;
2024-10-12 23:17:24;1728764264.660554;faceUp;0.00421142578125;-0.091339111328125;-0.9935760498046875;
2024-10-12 23:17:24;1728764264.707443;faceUp;0.01715087890625;-0.09576416015625;-0.9839630126953125;
2024-10-12 23:17:24;1728764264.751769;faceUp;0.01080322265625;-0.0787506103515625;-0.99627685546875;
2024-10-12 23:17:24;1728764264.810065;faceUp;0.0115203857421875;-0.074920654296875;-0.99456787109375;
2024-10-12 23:17:24;1728764264.859891;faceUp;0.007843017578125;-0.08306884765625;-0.994171142578125;
2024-10-12 23:17:24;1728764264.901582;faceUp;0.0076751708984375;-0.104736328125;-0.9862518310546875;
2024-10-12 23:17:24;1728764264.959896;faceUp;-0.002410888671875;-0.095916748046875;-0.995941162109375;
2024-10-12 23:17:24;1728764265.0014539;faceUp;-0.0043182373046875;-0.0930023193359375;-0.9899444580078125;
2024-10-12 23:17:24;1728764265.051122;faceUp;-0.00152587890625;-0.0929718017578125;-0.9880828857421875;
2024-10-12 23:17:24;1728764265.1083841;faceUp;-0.0102081298828125;-0.0808563232421875;-0.993438720703125;
2024-10-12 23:17:24;1728764265.150976;faceUp;0.005828857421875;-0.0998382568359375;-0.977264404296875;
2024-10-12 23:17:24;1728764265.207516;faceUp;0.0008697509765625;-0.0941619873046875;-0.996368408203125;
2024-10-12 23:17:24;1728764265.2596211;faceUp;-0.0129547119140625;-0.0871124267578125;-1.0033111572265625;
2024-10-12 23:17:24;1728764265.309363;faceUp;-0.0009307861328125;-0.0957183837890625;-0.9874267578125;
2024-10-12 23:17:24;1728764265.357915;faceUp;-0.00439453125;-0.0928497314453125;-0.9826202392578125;
2024-10-12 23:17:24;1728764265.4007568;faceUp;0.0081634521484375;-0.086822509765625;-0.9886474609375;
2024-10-12 23:17:24;1728764265.45737;faceUp;-0.010528564453125;-0.080810546875;-1.0207977294921875;
2024-10-12 23:17:24;1728764265.5075068;faceUp;-0.015045166015625;-0.097412109375;-1.001800537109375;
2024-10-12 23:17:24;1728764265.558131;faceUp;-0.01263427734375;-0.1075592041015625;-0.9826507568359375;
2024-10-12 23:17:24;1728764265.607461;faceUp;-9.1552734375e-05;-0.09625244140625;-0.9749755859375;
2024-10-12 23:17:24;1728764265.656839;faceUp;0.0326385498046875;-0.0872650146484375;-0.97222900390625;
2024-10-12 23:17:24;1728764265.709402;faceUp;0.0215301513671875;-0.063720703125;-1.0006866455078125;
2024-10-12 23:17:24;1728764265.758879;faceUp;-0.004180908203125;-0.0781707763671875;-1.0128021240234375;
2024-10-12 23:17:24;1728764265.807558;faceUp;-0.0330047607421875;-0.096099853515625;-1.0089111328125;
2024-10-12 23:17:24;1728764265.8571901;faceUp;-0.01971435546875;-0.0987091064453125;-0.9831085205078125;
2024-10-12 23:17:24;1728764265.8997521;faceUp;-0.00421142578125;-0.0870208740234375;-0.978485107421875;
2024-10-12 23:17:24;1728764265.957473;faceUp;0.0025787353515625;-0.0875244140625;-0.990692138671875;
2024-10-12 23:17:24;1728764266.002129;faceUp;-0.0170135498046875;-0.0917510986328125;-1.0136566162109375;
2024-10-12 23:17:24;1728764266.049155;faceUp;-0.0020751953125;-0.09979248046875;-0.988006591796875;
2024-10-12 23:17:24;1728764266.107044;faceUp;0.011749267578125;-0.0926666259765625;-0.9743804931640625;
2024-10-12 23:17:24;1728764266.157148;faceUp;0.018096923828125;-0.0906219482421875;-0.991180419921875;
2024-10-12 23:17:24;1728764266.2061691;faceUp;0.01849365234375;-0.09429931640625;-0.9991302490234375;
2024-10-12 23:17:24;1728764266.257714;faceUp;0.00799560546875;-0.0994110107421875;-1.0003509521484375;
2024-10-12 23:17:24;1728764266.305552;faceUp;0.016815185546875;-0.104705810546875;-0.982574462890625;
2024-10-12 23:17:24;1728764266.34875;faceUp;0.00909423828125;-0.0933685302734375;-0.9930572509765625;
2024-10-12 23:17:24;1728764266.407639;faceUp;0.0057830810546875;-0.0974273681640625;-0.9937591552734375;
2024-10-12 23:17:24;1728764266.457851;faceUp;0.007568359375;-0.1005096435546875;-0.975433349609375;
2024-10-12 23:17:24;1728764266.505683;faceUp;-0.015411376953125;-0.0970916748046875;-1.002227783203125;
2024-10-12 23:17:24;1728764266.5562181;faceUp;-0.0113677978515625;-0.1013336181640625;-0.994049072265625;
2024-10-12 23:17:24;1728764266.598383;faceUp;-0.00982666015625;-0.1012420654296875;-0.9797821044921875;
2024-10-12 23:17:24;1728764266.655926;faceUp;-0.0120391845703125;-0.0985260009765625;-0.9876708984375;
2024-10-12 23:17:24;1728764266.705538;faceUp;-0.0122528076171875;-0.09503173828125;-0.9874420166015625;
2024-10-12 23:17:24;1728764266.75511;faceUp;-0.005218505859375;-0.095062255859375;-0.9971466064453125;
2024-10-12 23:17:24;1728764266.8045092;faceUp;-0.0003509521484375;-0.0883331298828125;-0.9972381591796875;
2024-10-12 23:17:24;1728764266.856759;faceUp;0.0096282958984375;-0.083343505859375;-0.991424560546875;
2024-10-12 23:17:24;1728764266.904597;faceUp;0.0055084228515625;-0.0843353271484375;-0.9908294677734375;
2024-10-12 23:17:24;1728764266.9474401;faceUp;-0.01312255859375;-0.0838623046875;-0.99407958984375;
2024-10-12 23:17:24;1728764267.004551;faceUp;-0.0224761962890625;-0.0875701904296875;-0.98846435546875;
2024-10-12 23:17:24;1728764267.0560331;faceUp;-0.0071563720703125;-0.086029052734375;-0.9821014404296875;
2024-10-12 23:17:24;1728764267.106196;faceUp;-0.0097808837890625;-0.081085205078125;-0.9889678955078125;
2024-10-12 23:17:24;1728764267.151513;faceUp;-0.0020599365234375;-0.08502197265625;-0.9923553466796875;
2024-10-12 23:17:24;1728764267.205745;faceUp;-0.00909423828125;-0.0860748291015625;-0.9961700439453125;
2024-10-12 23:17:24;1728764267.254754;faceUp;-0.0033416748046875;-0.094573974609375;-0.9915618896484375;
2024-10-12 23:17:24;1728764267.303555;faceUp;-0.005126953125;-0.082305908203125;-0.9966278076171875;
2024-10-12 23:17:24;1728764267.354919;faceUp;0.0007171630859375;-0.083892822265625;-0.99932861328125;
2024-10-12 23:17:24;1728764267.405779;faceUp;-0.0005645751953125;-0.0800628662109375;-0.9920806884765625;
2024-10-12 23:17:24;1728764267.454627;faceUp;0.0051727294921875;-0.0804901123046875;-0.9852294921875;
2024-10-12 23:17:24;1728764267.503375;faceUp;0.0007476806640625;-0.0732574462890625;-0.9996185302734375;
2024-10-12 23:17:24;1728764267.55135;faceUp;-7.62939453125e-05;-0.0811920166015625;-0.9967498779296875;
2024-10-12 23:17:24;1728764267.60126;faceUp;-0.001708984375;-0.0806121826171875;-0.9957427978515625;
2024-10-12 23:17:24;1728764267.654996;faceUp;-0.0005340576171875;-0.073211669921875;-0.9952545166015625;
2024-10-12 23:17:24;1728764267.701761;faceUp;0.0054779052734375;-0.074676513671875;-0.990753173828125;
2024-10-12 23:17:24;1728764267.7541761;faceUp;-0.000946044921875;-0.0787811279296875;-0.9904327392578125;
2024-10-12 23:17:24;1728764267.8018122;faceUp;0.0002899169921875;-0.0831298828125;-0.9860076904296875;
2024-10-12 23:17:24;1728764267.85108;faceUp;0.0035400390625;-0.0783538818359375;-0.99432373046875;
2024-10-12 23:17:24;1728764267.9017692;faceUp;0.0045166015625;-0.0696258544921875;-0.98974609375;
2024-10-12 23:17:24;1728764267.9547849;faceUp;0.002044677734375;-0.0773773193359375;-1.0021514892578125;
2024-10-12 23:17:24;1728764268.003401;faceUp;0.0064544677734375;-0.0780487060546875;-0.9862518310546875;
2024-10-12 23:17:24;1728764268.05406;faceUp;0.0059814453125;-0.0772247314453125;-0.9941253662109375;
2024-10-12 23:17:24;1728764268.101801;faceUp;-0.0125274658203125;-0.0784912109375;-0.9893951416015625;
2024-10-12 23:17:24;1728764268.153796;faceUp;-0.0073089599609375;-0.09246826171875;-0.9957733154296875;
2024-10-12 23:17:24;1728764268.201082;faceUp;0.0001068115234375;-0.085205078125;-0.998565673828125;
2024-10-12 23:17:24;1728764268.253971;faceUp;0.0048828125;-0.08172607421875;-0.98883056640625;
2024-10-12 23:17:24;1728764268.300189;faceUp;-0.00201416015625;-0.074951171875;-0.9977569580078125;
2024-10-12 23:17:24;1728764268.35414;faceUp;0.0067291259765625;-0.0770111083984375;-0.983917236328125;
2024-10-12 23:17:24;1728764268.394609;faceUp;-0.000244140625;-0.0825958251953125;-0.9887542724609375;
2024-10-12 23:17:24;1728764268.45111;faceUp;-0.00189208984375;-0.0898590087890625;-1.0002593994140625;
2024-10-12 23:17:24;1728764268.502109;faceUp;-0.0078582763671875;-0.08685302734375;-0.9969482421875;
2024-10-12 23:17:24;1728764268.550784;faceUp;-0.0086822509765625;-0.08343505859375;-0.993988037109375;
2024-10-12 23:17:24;1728764268.5957909;faceUp;0.004913330078125;-0.086883544921875;-0.9817962646484375;
2024-10-12 23:17:24;1728764268.6440802;faceUp;-0.0126495361328125;-0.0730133056640625;-0.9900360107421875;
2024-10-12 23:17:24;1728764268.6956549;faceUp;-0.0070037841796875;-0.0828094482421875;-0.98956298828125;
2024-10-12 23:17:24;1728764268.74505;faceUp;-0.0001068115234375;-0.0907745361328125;-0.9869537353515625;
2024-10-12 23:17:24;1728764268.795094;faceUp;-0.0015106201171875;-0.08642578125;-0.99151611328125;
2024-10-12 23:17:24;1728764268.844667;faceUp;-0.005462646484375;-0.0816650390625;-1.0024566650390625;
2024-10-12 23:17:24;1728764268.899345;faceUp;-0.0199737548828125;-0.081268310546875;-0.9984283447265625;
2024-10-12 23:17:24;1728764268.945434;faceUp;0.00201416015625;-0.0951385498046875;-0.980926513671875;
2024-10-12 23:17:24;1728764268.9942698;faceUp;-0.0007171630859375;-0.082916259765625;-0.9827728271484375;
2024-10-12 23:17:24;1728764269.044138;faceUp;0.009674072265625;-0.079071044921875;-0.9911041259765625;
2024-10-12 23:17:24;1728764269.0949512;faceUp;-0.0021820068359375;-0.07183837890625;-1.005096435546875;
2024-10-12 23:17:24;1728764269.144876;faceUp;0.0004425048828125;-0.0849456787109375;-0.995025634765625;
2024-10-12 23:17:24;1728764269.200834;faceUp;-0.0070037841796875;-0.0867462158203125;-0.9934844970703125;
2024-10-12 23:17:24;1728764269.2439299;faceUp;-0.012939453125;-0.0892486572265625;-0.98583984375;
2024-10-12 23:17:24;1728764269.295533;faceUp;-0.00762939453125;-0.0929107666015625;-0.9859161376953125;
2024-10-12 23:17:24;1728764269.344904;faceUp;-0.009368896484375;-0.0876007080078125;-0.9931182861328125;
2024-10-12 23:17:24;1728764269.394878;faceUp;0.0031280517578125;-0.090057373046875;-0.997314453125;
2024-10-12 23:17:24;1728764269.444334;faceUp;0.002838134765625;-0.0906219482421875;-1.00042724609375;
2024-10-12 23:17:24;1728764269.495596;faceUp;-0.010650634765625;-0.090850830078125;-0.99884033203125;
2024-10-12 23:17:24;1728764269.545037;faceUp;-0.008758544921875;-0.09515380859375;-0.9877166748046875;
2024-10-12 23:17:24;1728764269.594864;faceUp;-0.0166168212890625;-0.08807373046875;-0.99310302734375;
2024-10-12 23:17:24;1728764269.649473;faceUp;-0.0054931640625;-0.0843353271484375;-0.9873504638671875;
2024-10-12 23:17:24;1728764269.700002;faceUp;-0.0081329345703125;-0.08233642578125;-0.992095947265625;
2024-10-12 23:17:24;1728764269.7512898;faceUp;-0.000823974609375;-0.100921630859375;-0.9838714599609375;
2024-10-12 23:17:24;1728764269.799916;faceUp;0.007293701171875;-0.1082611083984375;-0.9849090576171875;
2024-10-12 23:17:24;1728764269.850412;faceUp;-0.0076751708984375;-0.078277587890625;-1.0069580078125;
2024-10-12 23:17:24;1728764269.900913;faceUp;-0.001708984375;-0.07318115234375;-1.0009613037109375;
2024-10-12 23:17:24;1728764269.943999;faceUp;-0.011566162109375;-0.0931396484375;-0.9863739013671875;
2024-10-12 23:17:24;1728764270.000915;faceUp;-0.012176513671875;-0.111846923828125;-0.9769134521484375;
2024-10-12 23:17:24;1728764270.050624;faceUp;-0.008514404296875;-0.1099853515625;-0.97418212890625;
2024-10-12 23:17:24;1728764270.099895;faceUp;-0.0177459716796875;-0.0950927734375;-0.9923858642578125;
2024-10-12 23:17:24;1728764270.1503801;faceUp;-0.004913330078125;-0.0897064208984375;-0.9916839599609375;
2024-10-12 23:17:24;1728764270.20017;faceUp;-0.0057373046875;-0.0858154296875;-0.99786376953125;
2024-10-12 23:17:24;1728764270.249888;faceUp;0.0111083984375;-0.0879058837890625;-0.9841461181640625;
2024-10-12 23:17:24;1728764270.30048;faceUp;-0.0064239501953125;-0.1009674072265625;-0.9838104248046875;
2024-10-12 23:17:24;1728764270.348792;faceUp;-0.0236053466796875;-0.1042022705078125;-0.9924774169921875;
2024-10-12 23:17:24;1728764270.391858;faceUp;-0.0352783203125;-0.099639892578125;-0.9964752197265625;
2024-10-12 23:17:24;1728764270.4469151;faceUp;-0.01092529296875;-0.1048431396484375;-0.978118896484375;
2024-10-12 23:17:24;1728764270.499302;faceUp;-0.0146026611328125;-0.099517822265625;-0.9851837158203125;
2024-10-12 23:17:24;1728764270.548181;faceUp;-0.0074920654296875;-0.101898193359375;-1.005126953125;
2024-10-12 23:17:24;1728764270.597705;faceUp;-0.0068359375;-0.095306396484375;-1.0050811767578125;
2024-10-12 23:17:24;1728764270.6486468;faceUp;-0.0103302001953125;-0.094940185546875;-0.9921875;
2024-10-12 23:17:24;1728764270.691113;faceUp;-0.007659912109375;-0.090118408203125;-0.98419189453125;
2024-10-12 23:17:24;1728764270.7488499;faceUp;-0.00177001953125;-0.1097869873046875;-1.0174713134765625;
2024-10-12 23:17:24;1728764270.797852;faceUp;-0.010772705078125;-0.08477783203125;-1.0353851318359375;
2024-10-12 23:17:24;1728764270.847203;faceUp;-0.0684356689453125;-0.0766143798828125;-0.9800872802734375;
2024-10-12 23:17:24;1728764270.899507;faceUp;-0.100738525390625;-0.0758056640625;-0.9525299072265625;
2024-10-12 23:17:24;1728764270.9476871;faceUp;-0.1048431396484375;-0.12835693359375;-0.9788818359375;
2024-10-12 23:17:24;1728764270.998882;faceUp;-0.1001739501953125;-0.0990753173828125;-0.982391357421875;
2024-10-12 23:17:24;1728764271.047073;faceUp;-0.07391357421875;-0.10797119140625;-0.96759033203125;
2024-10-12 23:17:24;1728764271.098051;faceUp;-0.0698394775390625;-0.0894775390625;-0.9964141845703125;
2024-10-12 23:17:24;1728764271.139175;faceUp;-0.060150146484375;-0.0770111083984375;-1.0081634521484375;
2024-10-12 23:17:24;1728764271.190168;faceUp;-0.0467681884765625;-0.08270263671875;-0.9859466552734375;
2024-10-12 23:17:24;1728764271.246986;faceUp;-0.063995361328125;-0.0875701904296875;-1.00115966796875;
2024-10-12 23:17:24;1728764271.297237;faceUp;-0.0640106201171875;-0.089935302734375;-0.985931396484375;
2024-10-12 23:17:24;1728764271.3459702;faceUp;-0.0482940673828125;-0.102447509765625;-0.991943359375;
2024-10-12 23:17:24;1728764271.395571;faceUp;-0.043609619140625;-0.0981292724609375;-0.9765472412109375;
2024-10-12 23:17:24;1728764271.439388;faceUp;-0.058837890625;-0.101043701171875;-1.005523681640625;
2024-10-12 23:17:24;1728764271.4974241;faceUp;-0.055389404296875;-0.1062774658203125;-0.99456787109375;
2024-10-12 23:17:24;1728764271.547826;faceUp;-0.061859130859375;-0.0915374755859375;-1.001251220703125;
2024-10-12 23:17:24;1728764271.5968518;faceUp;-0.0425872802734375;-0.093353271484375;-0.9724578857421875;
2024-10-12 23:17:24;1728764271.646185;faceUp;-0.0312652587890625;-0.1071624755859375;-0.9708709716796875;
2024-10-12 23:17:24;1728764271.6974878;faceUp;-0.0552825927734375;-0.1020355224609375;-1.0022735595703125;
2024-10-12 23:17:24;1728764271.7475;faceUp;-0.044342041015625;-0.110076904296875;-0.9805908203125;
2024-10-12 23:17:24;1728764271.7950912;faceUp;-0.02435302734375;-0.1108551025390625;-0.996185302734375;
2024-10-12 23:17:24;1728764271.8463879;faceUp;-0.0495452880859375;-0.0913238525390625;-1.005828857421875;
2024-10-12 23:17:24;1728764271.895509;faceUp;-0.0517120361328125;-0.0975189208984375;-0.9922027587890625;
2024-10-12 23:17:24;1728764271.94695;faceUp;-0.0467681884765625;-0.1008148193359375;-0.9793701171875;
2024-10-12 23:17:24;1728764271.995439;faceUp;-0.0264739990234375;-0.09625244140625;-0.987884521484375;
2024-10-12 23:17:24;1728764272.0469031;faceUp;-0.025634765625;-0.1035003662109375;-0.9904022216796875;
2024-10-12 23:17:24;1728764272.09712;faceUp;-0.0491485595703125;-0.092620849609375;-1.0018310546875;
2024-10-12 23:17:24;1728764272.145327;faceUp;-0.059173583984375;-0.097686767578125;-0.987518310546875;
2024-10-12 23:17:24;1728764272.187344;faceUp;-0.03057861328125;-0.1162567138671875;-0.97674560546875;
2024-10-12 23:17:24;1728764272.2421808;faceUp;-0.04296875;-0.1037445068359375;-0.9792327880859375;
2024-10-12 23:17:24;1728764272.2940211;faceUp;-0.034759521484375;-0.093719482421875;-1.0109100341796875;
2024-10-12 23:17:24;1728764272.3445969;faceUp;-0.050018310546875;-0.097198486328125;-1.0128326416015625;
2024-10-12 23:17:24;1728764272.39496;faceUp;-0.0487060546875;-0.1077880859375;-0.994781494140625;
2024-10-12 23:17:24;1728764272.441531;faceUp;-0.027801513671875;-0.110626220703125;-0.976715087890625;
2024-10-12 23:17:24;1728764272.486731;faceUp;-0.018218994140625;-0.1001739501953125;-0.9801483154296875;
2024-10-12 23:17:24;1728764272.5415401;faceUp;-0.01629638671875;-0.083343505859375;-0.99359130859375;
2024-10-12 23:17:24;1728764272.5954862;faceUp;-0.0277557373046875;-0.092926025390625;-1.0033111572265625;
2024-10-12 23:17:24;1728764272.644515;faceUp;-0.0431671142578125;-0.0960540771484375;-1.0025482177734375;
2024-10-12 23:17:24;1728764272.6939511;faceUp;-0.0403594970703125;-0.0970611572265625;-0.9872283935546875;
2024-10-12 23:17:24;1728764272.744751;faceUp;-0.0328521728515625;-0.105438232421875;-0.97552490234375;
2024-10-12 23:17:24;1728764272.790602;faceUp;-0.0351715087890625;-0.105316162109375;-0.9888916015625;
2024-10-12 23:17:24;1728764272.840744;faceUp;-0.0280609130859375;-0.1055755615234375;-1.0037994384765625;
2024-10-12 23:17:24;1728764272.89213;faceUp;-0.0315704345703125;-0.095703125;-0.9893341064453125;
2024-10-12 23:17:24;1728764272.9416819;faceUp;-0.0224761962890625;-0.0953369140625;-0.9886474609375;
2024-10-12 23:17:24;1728764272.991856;faceUp;-0.0278778076171875;-0.0947265625;-0.98284912109375;
2024-10-12 23:17:24;1728764273.0412679;faceUp;-0.02899169921875;-0.1065826416015625;-0.990478515625;
2024-10-12 23:17:24;1728764273.0942621;faceUp;-0.0421295166015625;-0.103424072265625;-0.98681640625;
2024-10-12 23:17:24;1728764273.1414971;faceUp;-0.041656494140625;-0.1109466552734375;-0.9872894287109375;
2024-10-12 23:17:24;1728764273.1908011;faceUp;-0.0350341796875;-0.1135711669921875;-0.9927825927734375;
2024-10-12 23:17:24;1728764273.2349958;faceUp;-0.0181427001953125;-0.1035308837890625;-0.99127197265625;
2024-10-12 23:17:24;1728764273.29146;faceUp;-0.0180511474609375;-0.1024017333984375;-0.98760986328125;
2024-10-12 23:17:24;1728764273.341951;faceUp;-0.0179901123046875;-0.0980072021484375;-0.9878692626953125;
2024-10-12 23:17:24;1728764273.384803;faceUp;-0.0150909423828125;-0.11199951171875;-0.9827880859375;
2024-10-12 23:17:24;1728764273.438782;faceUp;-0.0287933349609375;-0.1179962158203125;-0.9851531982421875;
2024-10-12 23:17:24;1728764273.489532;faceUp;-0.040557861328125;-0.11273193359375;-0.98895263671875;
2024-10-12 23:17:24;1728764273.540872;faceUp;-0.04547119140625;-0.114776611328125;-0.9810028076171875;
2024-10-12 23:17:24;1728764273.5887818;faceUp;-0.0403289794921875;-0.1177520751953125;-0.99066162109375;
2024-10-12 23:17:24;1728764273.6377769;faceUp;-0.039093017578125;-0.111846923828125;-0.982330322265625;
2024-10-12 23:17:24;1728764273.687055;faceUp;-0.0291595458984375;-0.1056976318359375;-0.99127197265625;
2024-10-12 23:17:24;1728764273.737253;faceUp;-0.0266876220703125;-0.0974884033203125;-0.993194580078125;
2024-10-12 23:17:24;1728764273.787276;faceUp;-0.030670166015625;-0.1085205078125;-0.9907379150390625;
2024-10-12 23:17:24;1728764273.8368192;faceUp;-0.03045654296875;-0.1324920654296875;-0.9992523193359375;
2024-10-12 23:17:24;1728764273.8836432;faceUp;-0.034393310546875;-0.1229400634765625;-0.9866485595703125;
2024-10-12 23:17:24;1728764273.936733;faceUp;-0.009979248046875;-0.1088409423828125;-0.9759063720703125;
2024-10-12 23:17:24;1728764273.986466;faceUp;-0.015167236328125;-0.080841064453125;-0.983001708984375;
2024-10-12 23:17:24;1728764274.0365062;faceUp;-0.011871337890625;-0.0908203125;-0.9836578369140625;
2024-10-12 23:17:24;1728764274.083204;faceUp;-0.0240478515625;-0.1031646728515625;-0.989471435546875;
2024-10-12 23:17:24;1728764274.1357632;faceUp;-0.020538330078125;-0.110870361328125;-0.9970550537109375;
2024-10-12 23:17:24;1728764274.189458;faceUp;-0.0287933349609375;-0.100006103515625;-0.9940948486328125;
2024-10-12 23:17:24;1728764274.239417;faceUp;-0.01898193359375;-0.1020050048828125;-0.9933319091796875;
2024-10-12 23:17:24;1728764274.289993;faceUp;-0.0224761962890625;-0.0919189453125;-0.9935760498046875;
2024-10-12 23:17:24;1728764274.339931;faceUp;-0.0142669677734375;-0.08502197265625;-0.9936981201171875;
2024-10-12 23:17:24;1728764274.391182;faceUp;-0.0003662109375;-0.097686767578125;-0.9854583740234375;
2024-10-12 23:17:24;1728764274.441135;faceUp;-0.015533447265625;-0.0945281982421875;-1.0030517578125;
2024-10-12 23:17:24;1728764274.491503;faceUp;-0.01806640625;-0.0919342041015625;-0.9914398193359375;
2024-10-12 23:17:24;1728764274.539926;faceUp;-0.0281829833984375;-0.082855224609375;-0.9912261962890625;
2024-10-12 23:17:24;1728764274.591882;faceUp;-0.021697998046875;-0.0862579345703125;-0.988006591796875;
2024-10-12 23:17:24;1728764274.638912;faceUp;-0.024169921875;-0.0959625244140625;-1.0015411376953125;
2024-10-12 23:17:24;1728764274.690771;faceUp;-0.02349853515625;-0.0948638916015625;-0.9961395263671875;
2024-10-12 23:17:24;1728764274.739668;faceUp;-0.0212860107421875;-0.084869384765625;-0.9904937744140625;
2024-10-12 23:17:24;1728764274.78884;faceUp;-0.005615234375;-0.066986083984375;-0.9827117919921875;
2024-10-12 23:17:24;1728764274.8386722;faceUp;-0.0147247314453125;-0.0712890625;-0.987213134765625;
2024-10-12 23:17:24;1728764274.889567;faceUp;-0.039398193359375;-0.0785675048828125;-0.9928131103515625;
2024-10-12 23:17:24;1728764274.939619;faceUp;-0.0358428955078125;-0.1006317138671875;-0.9907379150390625;
2024-10-12 23:17:24;1728764274.9885368;faceUp;-0.02606201171875;-0.0934600830078125;-0.989898681640625;
2024-10-12 23:17:24;1728764275.04041;faceUp;-0.0219879150390625;-0.0818634033203125;-0.9886016845703125;
2024-10-12 23:17:24;1728764275.090018;faceUp;-0.0095672607421875;-0.0931396484375;-0.9968109130859375;
2024-10-12 23:17:24;1728764275.139885;faceUp;-0.0135955810546875;-0.0971832275390625;-0.9996185302734375;
2024-10-12 23:17:24;1728764275.187273;faceUp;-0.0039825439453125;-0.0937652587890625;-0.9993743896484375;
2024-10-12 23:17:24;1728764275.238528;faceUp;-0.0116424560546875;-0.0748291015625;-0.9887542724609375;
2024-10-12 23:17:24;1728764275.2888808;faceUp;-0.0250396728515625;-0.0873260498046875;-0.990875244140625;
2024-10-12 23:17:24;1728764275.338304;faceUp;-0.031219482421875;-0.10284423828125;-0.9818572998046875;
2024-10-12 23:17:24;1728764275.389677;faceUp;-0.0257568359375;-0.1131744384765625;-0.991912841796875;
2024-10-12 23:17:24;1728764275.4307199;faceUp;-0.02569580078125;-0.102691650390625;-1.0014495849609375;
2024-10-12 23:17:24;1728764275.4864988;faceUp;-0.02886962890625;-0.0947113037109375;-0.9977874755859375;
2024-10-12 23:17:24;1728764275.5368009;faceUp;-0.0075836181640625;-0.0936279296875;-1.0032196044921875;
2024-10-12 23:17:24;1728764275.587888;faceUp;-0.00457763671875;-0.0796966552734375;-0.9983978271484375;
2024-10-12 23:17:24;1728764275.637876;faceUp;-0.0074005126953125;-0.0759735107421875;-0.9766998291015625;
2024-10-12 23:17:24;1728764275.687827;faceUp;-0.0259552001953125;-0.1135711669921875;-0.9743499755859375;
2024-10-12 23:17:24;1728764275.736886;faceUp;-0.0411529541015625;-0.139739990234375;-0.9921417236328125;
2024-10-12 23:17:24;1728764275.7866611;faceUp;-0.0418548583984375;-0.1302490234375;-0.9937591552734375;
2024-10-12 23:17:24;1728764275.8389812;faceUp;-0.038330078125;-0.10589599609375;-0.9886627197265625;
2024-10-12 23:17:24;1728764275.888389;faceUp;-0.0053863525390625;-0.0904388427734375;-0.9880828857421875;
2024-10-12 23:17:24;1728764275.929737;faceUp;-0.000396728515625;-0.089111328125;-0.979705810546875;
2024-10-12 23:17:24;1728764275.986661;faceUp;-0.0071868896484375;-0.10223388671875;-0.98687744140625;
2024-10-12 23:17:24;1728764276.036484;faceUp;-0.02734375;-0.10205078125;-1.0001678466796875;
2024-10-12 23:17:24;1728764276.0869222;faceUp;-0.02349853515625;-0.1086578369140625;-0.9950408935546875;
2024-10-12 23:17:24;1728764276.13585;faceUp;-0.0264434814453125;-0.1029815673828125;-0.9927978515625;
2024-10-12 23:17:24;1728764276.1864471;faceUp;-0.01641845703125;-0.100616455078125;-0.980865478515625;
2024-10-12 23:17:24;1728764276.22912;faceUp;-0.0154266357421875;-0.099884033203125;-0.9848175048828125;
2024-10-12 23:17:24;1728764276.2876492;faceUp;-0.0127105712890625;-0.1018218994140625;-0.9999542236328125;
2024-10-12 23:17:24;1728764276.3371348;faceUp;-0.0184326171875;-0.1022491455078125;-0.9910888671875;
2024-10-12 23:17:24;1728764276.385662;faceUp;-0.0208587646484375;-0.1076202392578125;-0.9922637939453125;
2024-10-12 23:17:24;1728764276.434332;faceUp;-0.0148773193359375;-0.1048736572265625;-0.9915771484375;
2024-10-12 23:17:24;1728764276.478749;faceUp;-0.015411376953125;-0.1002044677734375;-0.9847564697265625;
2024-10-12 23:17:24;1728764276.535749;faceUp;-0.01031494140625;-0.1009063720703125;-0.998077392578125;
2024-10-12 23:17:24;1728764276.587466;faceUp;-0.0257568359375;-0.10369873046875;-0.98553466796875;
2024-10-12 23:17:24;1728764276.628289;faceUp;-0.0173492431640625;-0.1170501708984375;-0.981201171875;
2024-10-12 23:17:24;1728764276.686811;faceUp;-0.032623291015625;-0.103485107421875;-0.9994659423828125;
2024-10-12 23:17:24;1728764276.7368999;faceUp;-0.0212554931640625;-0.1118316650390625;-0.9886322021484375;
2024-10-12 23:17:24;1728764276.786804;faceUp;-0.017486572265625;-0.1097259521484375;-0.9798736572265625;
2024-10-12 23:17:24;1728764276.8365312;faceUp;-0.01263427734375;-0.1107635498046875;-0.9878082275390625;
2024-10-12 23:17:24;1728764276.886162;faceUp;-0.01654052734375;-0.098236083984375;-0.99420166015625;
2024-10-12 23:17:24;1728764276.927777;faceUp;-0.0167999267578125;-0.1020050048828125;-1.008148193359375;
2024-10-12 23:17:24;1728764276.985376;faceUp;-0.0252685546875;-0.1023101806640625;-0.99029541015625;
2024-10-12 23:17:24;1728764277.0356112;faceUp;-0.01959228515625;-0.1126556396484375;-0.9836883544921875;
2024-10-12 23:17:24;1728764277.077577;faceUp;-0.0157623291015625;-0.1187896728515625;-0.981048583984375;
2024-10-12 23:17:24;1728764277.127675;faceUp;-0.019256591796875;-0.107452392578125;-0.978424072265625;
2024-10-12 23:17:24;1728764277.177695;faceUp;-0.017669677734375;-0.0965576171875;-0.989959716796875;
2024-10-12 23:17:24;1728764277.2355251;faceUp;-0.021942138671875;-0.0990447998046875;-0.9949951171875;
2024-10-12 23:17:24;1728764277.2860289;faceUp;-0.016204833984375;-0.105133056640625;-0.993011474609375;
2024-10-12 23:17:24;1728764277.327827;faceUp;-0.01416015625;-0.109588623046875;-0.9903564453125;
2024-10-12 23:17:24;1728764277.3777518;faceUp;-0.012847900390625;-0.1097869873046875;-0.9882354736328125;
2024-10-12 23:17:24;1728764277.427772;faceUp;-0.011993408203125;-0.1002960205078125;-0.986724853515625;
2024-10-12 23:17:24;1728764277.477916;faceUp;-0.0252685546875;-0.0958251953125;-1.001861572265625;
2024-10-12 23:17:24;1728764277.527923;faceUp;-0.01556396484375;-0.107452392578125;-0.996856689453125;
2024-10-12 23:17:24;1728764277.57722;faceUp;-0.0159912109375;-0.1084442138671875;-0.99005126953125;
2024-10-12 23:17:24;1728764277.627438;faceUp;-0.0138397216796875;-0.1025543212890625;-0.9893951416015625;
2024-10-12 23:17:24;1728764277.6771111;faceUp;-0.0172882080078125;-0.098663330078125;-0.9844512939453125;
2024-10-12 23:17:24;1728764277.727209;faceUp;-0.0070953369140625;-0.1006927490234375;-0.9893646240234375;
2024-10-12 23:17:24;1728764277.777168;faceUp;-0.010284423828125;-0.1007080078125;-0.9827117919921875;
2024-10-12 23:17:24;1728764277.8269238;faceUp;-0.0284881591796875;-0.112518310546875;-0.99749755859375;
2024-10-12 23:17:24;1728764277.876737;faceUp;-0.0192108154296875;-0.11376953125;-0.9951324462890625;
2024-10-12 23:17:24;1728764277.926574;faceUp;-0.0110931396484375;-0.0999755859375;-0.9846343994140625;
2024-10-12 23:17:24;1728764277.976437;faceUp;-0.0058746337890625;-0.103515625;-0.988372802734375;
2024-10-12 23:17:24;1728764278.0267181;faceUp;-0.0083465576171875;-0.1022186279296875;-0.9867706298828125;
2024-10-12 23:17:24;1728764278.076501;faceUp;-0.0157928466796875;-0.10418701171875;-1.0003509521484375;
2024-10-12 23:17:24;1728764278.126488;faceUp;-0.023101806640625;-0.1037139892578125;-0.991424560546875;
2024-10-12 23:17:24;1728764278.176275;faceUp;-0.008880615234375;-0.1062164306640625;-0.9780120849609375;
2024-10-12 23:17:24;1728764278.230407;faceUp;-0.015869140625;-0.108062744140625;-0.9961090087890625;
2024-10-12 23:17:24;1728764278.276092;faceUp;-0.0206451416015625;-0.100555419921875;-0.987213134765625;
2024-10-12 23:17:24;1728764278.326132;faceUp;-0.02008056640625;-0.1110687255859375;-0.991180419921875;
2024-10-12 23:17:24;1728764278.380116;faceUp;-0.0219573974609375;-0.1088409423828125;-0.9947662353515625;
2024-10-12 23:17:24;1728764278.430482;faceUp;-0.016937255859375;-0.1025543212890625;-0.993316650390625;
2024-10-12 23:17:24;1728764278.4814239;faceUp;-0.0042572021484375;-0.0976715087890625;-0.9821929931640625;
2024-10-12 23:17:24;1728764278.52455;faceUp;-0.01336669921875;-0.0977325439453125;-0.982086181640625;
2024-10-12 23:17:24;1728764278.58185;faceUp;-0.0161285400390625;-0.11279296875;-1.0009765625;
2024-10-12 23:17:24;1728764278.62963;faceUp;-0.0305328369140625;-0.1200408935546875;-1.0010223388671875;
2024-10-12 23:17:24;1728764278.681219;faceUp;-0.031158447265625;-0.1092376708984375;-0.997955322265625;
2024-10-12 23:17:24;1728764278.73293;faceUp;-0.0296173095703125;-0.0981903076171875;-0.9961700439453125;
2024-10-12 23:17:24;1728764278.781083;faceUp;-0.0065155029296875;-0.1110076904296875;-0.963043212890625;
2024-10-12 23:17:24;1728764278.823999;faceUp;-0.005340576171875;-0.1037139892578125;-0.9754486083984375;
2024-10-12 23:17:24;1728764278.881027;faceUp;-0.000579833984375;-0.0955047607421875;-1.0131378173828125;
2024-10-12 23:17:24;1728764278.929631;faceUp;0.000701904296875;-0.1162567138671875;-1.0056915283203125;
2024-10-12 23:17:24;1728764278.980345;faceUp;-0.0020599365234375;-0.1175994873046875;-0.9825439453125;
2024-10-12 23:17:24;1728764279.031026;faceUp;-0.0168914794921875;-0.117950439453125;-0.9742584228515625;
2024-10-12 23:17:24;1728764279.079523;faceUp;-0.0216064453125;-0.1154022216796875;-0.979278564453125;
2024-10-12 23:17:24;1728764279.129809;faceUp;-0.0234527587890625;-0.1197967529296875;-1.004547119140625;
2024-10-12 23:17:24;1728764279.1801019;faceUp;0.00201416015625;-0.1236419677734375;-0.988372802734375;
2024-10-12 23:17:24;1728764279.2302089;faceUp;0.0012664794921875;-0.1087493896484375;-0.9959259033203125;
2024-10-12 23:17:24;1728764279.28105;faceUp;-0.001861572265625;-0.0985260009765625;-0.979736328125;
2024-10-12 23:17:24;1728764279.331073;faceUp;-0.012176513671875;-0.106201171875;-0.9822235107421875;
2024-10-12 23:17:24;1728764279.381289;faceUp;-0.012237548828125;-0.121856689453125;-0.98492431640625;
2024-10-12 23:17:24;1728764279.430077;faceUp;-0.025787353515625;-0.11920166015625;-0.9937744140625;
2024-10-12 23:17:24;1728764279.479841;faceUp;-0.0138702392578125;-0.1184234619140625;-0.99591064453125;
2024-10-12 23:17:24;1728764279.529832;faceUp;-0.011260986328125;-0.09820556640625;-0.99017333984375;
2024-10-12 23:17:24;1728764279.581246;faceUp;0.0018310546875;-0.1080322265625;-0.9719696044921875;
2024-10-12 23:17:24;1728764279.630408;faceUp;0.0097198486328125;-0.1155242919921875;-0.9745941162109375;
2024-10-12 23:17:24;1728764279.681062;faceUp;-0.008453369140625;-0.110992431640625;-0.9765167236328125;
2024-10-12 23:17:24;1728764279.7282438;faceUp;-0.011688232421875;-0.1276702880859375;-0.9978790283203125;
2024-10-12 23:17:24;1728764279.7803779;faceUp;-0.0196380615234375;-0.1202239990234375;-1.0157928466796875;
2024-10-12 23:17:24;1728764279.8312368;faceUp;-0.007720947265625;-0.123046875;-0.996673583984375;
2024-10-12 23:17:24;1728764279.8797832;faceUp;-0.0120849609375;-0.1100311279296875;-0.9857025146484375;
2024-10-12 23:17:24;1728764279.930522;faceUp;-0.008148193359375;-0.1182708740234375;-0.98309326171875;
2024-10-12 23:17:24;1728764279.9799042;faceUp;-0.017730712890625;-0.119537353515625;-0.98193359375;
2024-10-12 23:17:24;1728764280.024451;faceUp;-0.0080108642578125;-0.12384033203125;-0.988616943359375;
2024-10-12 23:17:24;1728764280.0790071;faceUp;-0.0179901123046875;-0.1201629638671875;-0.9875946044921875;
2024-10-12 23:17:24;1728764280.129679;faceUp;-0.01763916015625;-0.126739501953125;-0.9978179931640625;
2024-10-12 23:17:24;1728764280.1801;faceUp;-0.0152740478515625;-0.1220703125;-0.9624176025390625;
2024-10-12 23:17:24;1728764280.2297459;faceUp;0.0072021484375;-0.1284027099609375;-0.974151611328125;
2024-10-12 23:17:24;1728764280.278527;faceUp;0.0029754638671875;-0.1201019287109375;-0.9770965576171875;
2024-10-12 23:17:24;1728764280.3288488;faceUp;0.0266876220703125;-0.124053955078125;-0.9930877685546875;
2024-10-12 23:17:24;1728764280.379767;faceUp;0.0156097412109375;-0.10552978515625;-0.997039794921875;
2024-10-12 23:17:24;1728764280.421967;faceUp;0.021484375;-0.110595703125;-0.986785888671875;
2024-10-12 23:17:24;1728764280.4796162;faceUp;0.012664794921875;-0.116790771484375;-0.9910430908203125;
2024-10-12 23:17:24;1728764280.520566;faceUp;0.0045928955078125;-0.118560791015625;-0.990936279296875;
2024-10-12 23:17:24;1728764280.57761;faceUp;-0.007965087890625;-0.1309356689453125;-0.9878082275390625;
2024-10-12 23:17:24;1728764280.6204581;faceUp;0.0022125244140625;-0.130340576171875;-0.9852447509765625;
2024-10-12 23:17:24;1728764280.678207;faceUp;0.0050506591796875;-0.119720458984375;-0.99053955078125;
2024-10-12 23:17:24;1728764280.725951;faceUp;0.0175628662109375;-0.116455078125;-0.983612060546875;
2024-10-12 23:17:24;1728764280.777845;faceUp;0.009429931640625;-0.107208251953125;-0.9941253662109375;
2024-10-12 23:17:24;1728764280.8200932;faceUp;0.016571044921875;-0.1219635009765625;-0.9807891845703125;
2024-10-12 23:17:24;1728764280.870043;faceUp;0.0151824951171875;-0.1329193115234375;-0.9876251220703125;
2024-10-12 23:17:24;1728764280.9290671;faceUp;0.0004119873046875;-0.1207427978515625;-0.9983062744140625;
2024-10-12 23:17:24;1728764280.9785938;faceUp;0.0083160400390625;-0.1229400634765625;-0.985626220703125;
2024-10-12 23:17:24;1728764281.019825;faceUp;0.0054931640625;-0.115020751953125;-0.990142822265625;
2024-10-12 23:17:24;1728764281.078273;faceUp;0.017913818359375;-0.1160125732421875;-0.9862060546875;
2024-10-12 23:17:24;1728764281.119539;faceUp;0.0059051513671875;-0.1152801513671875;-0.9910888671875;
2024-10-12 23:17:24;1728764281.178578;faceUp;0.004852294921875;-0.124176025390625;-0.982147216796875;
2024-10-12 23:17:24;1728764281.2193542;faceUp;-0.001007080078125;-0.1278839111328125;-0.995880126953125;
2024-10-12 23:17:24;1728764281.278383;faceUp;-0.0024261474609375;-0.1246337890625;-0.9869232177734375;
2024-10-12 23:17:24;1728764281.3270621;faceUp;0.0031890869140625;-0.1204071044921875;-0.98675537109375;
2024-10-12 23:17:24;1728764281.369081;faceUp;0.0074005126953125;-0.115447998046875;-0.9788818359375;
2024-10-12 23:17:24;1728764281.418922;faceUp;0.0061492919921875;-0.1153717041015625;-0.98480224609375;
2024-10-12 23:17:24;1728764281.475621;faceUp;0.0046844482421875;-0.1168060302734375;-0.998748779296875;
2024-10-12 23:17:24;1728764281.518705;faceUp;0.012542724609375;-0.1229705810546875;-0.9935455322265625;
2024-10-12 23:17:24;1728764281.577611;faceUp;-0.001678466796875;-0.1203460693359375;-0.98162841796875;
2024-10-12 23:17:24;1728764281.618509;faceUp;0.0084381103515625;-0.1236572265625;-0.9855804443359375;
2024-10-12 23:17:24;1728764281.675189;faceUp;-0.001190185546875;-0.112091064453125;-0.991912841796875;
2024-10-12 23:17:24;1728764281.726232;faceUp;0.001495361328125;-0.10858154296875;-0.9938507080078125;
2024-10-12 23:17:24;1728764281.776915;faceUp;-0.0035552978515625;-0.106414794921875;-0.986785888671875;
2024-10-12 23:17:24;1728764281.826459;faceUp;0.0027923583984375;-0.119354248046875;-1.000213623046875;
2024-10-12 23:17:24;1728764281.8766642;faceUp;-0.000396728515625;-0.119903564453125;-0.9851226806640625;
2024-10-12 23:17:24;1728764281.926292;faceUp;-0.0032806396484375;-0.1097869873046875;-0.993316650390625;
2024-10-12 23:17:24;1728764281.967936;faceUp;-0.0031280517578125;-0.1027679443359375;-0.99359130859375;
2024-10-12 23:17:24;1728764282.02565;faceUp;0.007080078125;-0.109466552734375;-0.9852447509765625;
2024-10-12 23:17:24;1728764282.067658;faceUp;-0.0057373046875;-0.1050567626953125;-0.9837646484375;
2024-10-12 23:17:24;1728764282.117379;faceUp;-0.0014495849609375;-0.105133056640625;-0.9891357421875;
2024-10-12 23:17:24;1728764282.171958;faceUp;-0.0064544677734375;-0.1113128662109375;-0.992431640625;
2024-10-12 23:17:24;1728764282.22629;faceUp;-0.00048828125;-0.1092071533203125;-0.9891815185546875;
2024-10-12 23:17:24;1728764282.268017;faceUp;-0.0011138916015625;-0.105865478515625;-0.9892120361328125;
2024-10-12 23:17:24;1728764282.3254871;faceUp;-0.0040283203125;-0.0985107421875;-0.9912872314453125;
2024-10-12 23:17:24;1728764282.3742142;faceUp;-0.00140380859375;-0.1002349853515625;-0.987396240234375;
2024-10-12 23:17:24;1728764282.418025;faceUp;-0.0022125244140625;-0.1112060546875;-0.992645263671875;
2024-10-12 23:17:24;1728764282.4748769;faceUp;-0.0031890869140625;-0.105072021484375;-0.989349365234375;
2024-10-12 23:17:24;1728764282.525626;faceUp;-0.000213623046875;-0.1048583984375;-0.973358154296875;
2024-10-12 23:17:24;1728764282.575516;faceUp;0.015716552734375;-0.1043548583984375;-0.9961090087890625;
2024-10-12 23:17:24;1728764282.62521;faceUp;-0.018798828125;-0.084228515625;-1.02606201171875;
2024-10-12 23:17:24;1728764282.67436;faceUp;-0.0165557861328125;-0.102508544921875;-1.005340576171875;
2024-10-12 23:17:24;1728764282.721836;faceUp;-0.0272064208984375;-0.1148834228515625;-0.980987548828125;
2024-10-12 23:17:24;1728764282.774729;faceUp;-0.0273590087890625;-0.1175384521484375;-0.9627838134765625;
2024-10-12 23:17:24;1728764282.821696;faceUp;-0.013397216796875;-0.1141204833984375;-0.9736480712890625;
2024-10-12 23:17:24;1728764282.873661;faceUp;0.009765625;-0.1033782958984375;-0.99444580078125;
2024-10-12 23:17:24;1728764282.915941;faceUp;0.0091705322265625;-0.0959930419921875;-1.0079345703125;
2024-10-12 23:17:24;1728764282.971497;faceUp;0.0117034912109375;-0.106689453125;-0.993408203125;
2024-10-12 23:17:24;1728764283.024591;faceUp;-0.0250701904296875;-0.099334716796875;-0.98126220703125;
2024-10-12 23:17:24;1728764283.071938;faceUp;-0.0159912109375;-0.112884521484375;-0.9751739501953125;
2024-10-12 23:17:24;1728764283.120074;faceUp;-0.019439697265625;-0.109222412109375;-0.98931884765625;
2024-10-12 23:17:24;1728764283.1692882;faceUp;0.000213623046875;-0.1057586669921875;-0.9831085205078125;
2024-10-12 23:17:24;1728764283.224144;faceUp;0.0108795166015625;-0.0973968505859375;-0.9970550537109375;
2024-10-12 23:17:24;1728764283.27348;faceUp;0.0218658447265625;-0.0917205810546875;-0.98223876953125;
2024-10-12 23:17:24;1728764283.323347;faceUp;-0.0070648193359375;-0.1038665771484375;-1.013031005859375;
2024-10-12 23:17:24;1728764283.369401;faceUp;-0.0079345703125;-0.0991668701171875;-0.988861083984375;
2024-10-12 23:17:24;1728764283.4162521;faceUp;-0.007293701171875;-0.1007537841796875;-1.0016632080078125;
2024-10-12 23:17:24;1728764283.469182;faceUp;-0.012451171875;-0.0961456298828125;-0.9928131103515625;
2024-10-12 23:17:24;1728764283.5214481;faceUp;-0.0230560302734375;-0.1002655029296875;-0.99456787109375;
2024-10-12 23:17:24;1728764283.570745;faceUp;-0.0108642578125;-0.094268798828125;-0.9913787841796875;
2024-10-12 23:17:24;1728764283.621058;faceUp;-0.028045654296875;-0.0940704345703125;-0.9985809326171875;
2024-10-12 23:17:24;1728764283.67116;faceUp;-0.0091705322265625;-0.0935821533203125;-0.985260009765625;
2024-10-12 23:17:24;1728764283.721232;faceUp;-0.0111541748046875;-0.0926513671875;-0.9968109130859375;
2024-10-12 23:17:24;1728764283.7707171;faceUp;-0.003173828125;-0.094024658203125;-0.9875030517578125;
2024-10-12 23:17:24;1728764283.8207002;faceUp;-0.01495361328125;-0.1004180908203125;-1.001312255859375;
2024-10-12 23:17:24;1728764283.869592;faceUp;-0.01275634765625;-0.0970916748046875;-0.996337890625;
2024-10-12 23:17:24;1728764283.921331;faceUp;-0.0167236328125;-0.0987091064453125;-0.989501953125;
2024-10-12 23:17:24;1728764283.9710221;faceUp;0.0076141357421875;-0.0997161865234375;-0.9808502197265625;
2024-10-12 23:17:24;1728764284.0190759;faceUp;0.0069122314453125;-0.07830810546875;-0.9920501708984375;
2024-10-12 23:17:24;1728764284.068869;faceUp;-0.0194854736328125;-0.0854034423828125;-0.9994964599609375;
2024-10-12 23:17:24;1728764284.121254;faceUp;-0.024993896484375;-0.0849609375;-1.00286865234375;
2024-10-12 23:17:24;1728764284.169536;faceUp;-0.004058837890625;-0.06756591796875;-0.995819091796875;
2024-10-12 23:17:24;1728764284.220144;faceUp;0.0091094970703125;-0.0768585205078125;-1.0360565185546875;
2024-10-12 23:17:24;1728764284.270994;faceUp;0.0074310302734375;-0.055328369140625;-0.9932861328125;
2024-10-12 23:17:24;1728764284.314337;faceUp;-0.0033416748046875;-0.082977294921875;-1.0225677490234375;
2024-10-12 23:17:24;1728764284.3690782;faceUp;0.0275726318359375;-0.114166259765625;-0.9908447265625;
2024-10-12 23:17:24;1728764284.416129;faceUp;-0.05316162109375;-0.1167144775390625;-0.9642333984375;
2024-10-12 23:17:24;1728764284.468327;faceUp;-0.00958251953125;-0.1195831298828125;-0.9932098388671875;
2024-10-12 23:17:24;1728764284.520206;faceUp;-0.01776123046875;-0.140228271484375;-0.9906768798828125;
2024-10-12 23:17:24;1728764284.569985;faceUp;-0.026336669921875;-0.1290283203125;-0.966064453125;
2024-10-12 23:17:24;1728764284.618231;faceUp;-0.008636474609375;-0.1208343505859375;-0.993316650390625;
2024-10-12 23:17:24;1728764284.669316;faceUp;0.007843017578125;-0.1350555419921875;-1.0493621826171875;
2024-10-12 23:17:24;1728764284.718093;faceUp;0.0128021240234375;-0.07342529296875;-0.94110107421875;
2024-10-12 23:17:24;1728764284.770681;faceUp;-0.00982666015625;-0.11724853515625;-1.0010528564453125;
