Date;Timestamp;DeviceOrientation;AccelerationX;AccelerationY;AccelerationZ;Label
2024-10-12 23:18:26;1728764306.651356;faceUp;0.046417236328125;-0.3260650634765625;-0.9679718017578125;
2024-10-12 23:18:26;1728764306.654437;faceUp;0.0230255126953125;-0.31805419921875;-1.0082244873046875;
2024-10-12 23:18:26;1728764306.654748;faceUp;0.0387420654296875;-0.26043701171875;-1.042755126953125;
2024-10-12 23:18:26;1728764306.6687632;faceUp;0.008941650390625;-0.2113037109375;-1.1343841552734375;
2024-10-12 23:18:26;1728764306.718924;faceUp;0.01153564453125;-0.211883544921875;-1.2211456298828125;
2024-10-12 23:18:26;1728764306.768759;faceUp;0.077117919921875;-0.12640380859375;-1.1465911865234375;
2024-10-12 23:18:26;1728764306.818595;faceUp;0.07244873046875;-0.10186767578125;-0.9703826904296875;
2024-10-12 23:18:26;1728764306.868404;faceUp;0.117584228515625;-0.130126953125;-0.850128173828125;
2024-10-12 23:18:26;1728764306.9185061;faceUp;0.1560821533203125;-0.149383544921875;-0.8317108154296875;
2024-10-12 23:18:26;1728764306.968349;faceUp;0.137847900390625;-0.1392669677734375;-0.8565673828125;
2024-10-12 23:18:26;1728764307.018661;faceUp;0.0660247802734375;-0.175201416015625;-0.896453857421875;
2024-10-12 23:18:26;1728764307.068366;faceUp;0.048828125;-0.198974609375;-0.9148712158203125;
2024-10-12 23:18:26;1728764307.118394;faceUp;0.037628173828125;-0.2144622802734375;-0.893280029296875;
2024-10-12 23:18:26;1728764307.168209;faceUp;0.043243408203125;-0.2059478759765625;-0.8885040283203125;
2024-10-12 23:18:26;1728764307.218169;faceUp;0.0036163330078125;-0.2117462158203125;-0.91253662109375;
2024-10-12 23:18:26;1728764307.267922;faceUp;0.027374267578125;-0.2216796875;-0.95001220703125;
2024-10-12 23:18:26;1728764307.318032;faceUp;0.0401458740234375;-0.216278076171875;-1.0531158447265625;
2024-10-12 23:18:26;1728764307.367611;faceUp;-0.0391387939453125;-0.160308837890625;-1.17889404296875;
2024-10-12 23:18:26;1728764307.417769;faceUp;-0.0833892822265625;-0.1558074951171875;-1.2082672119140625;
2024-10-12 23:18:26;1728764307.467565;faceUp;-0.0617218017578125;-0.10107421875;-1.2747650146484375;
2024-10-12 23:18:26;1728764307.517575;faceUp;-0.155792236328125;0.023345947265625;-1.0544891357421875;
2024-10-12 23:18:26;1728764307.56742;faceUp;-0.0949859619140625;0.0297698974609375;-0.8404998779296875;
2024-10-12 23:18:26;1728764307.617188;faceUp;-0.072296142578125;-0.0469512939453125;-0.7789154052734375;
2024-10-12 23:18:26;1728764307.666981;faceUp;0.0178070068359375;-0.1372528076171875;-0.8567047119140625;
2024-10-12 23:18:26;1728764307.7171268;faceUp;0.001220703125;-0.1298980712890625;-0.8890533447265625;
2024-10-12 23:18:26;1728764307.767126;faceUp;-0.0257720947265625;-0.1494903564453125;-0.9007110595703125;
2024-10-12 23:18:26;1728764307.816823;faceUp;-0.0079498291015625;-0.202972412109375;-0.9366302490234375;
2024-10-12 23:18:26;1728764307.866815;faceUp;-0.0172271728515625;-0.23406982421875;-0.949188232421875;
2024-10-12 23:18:26;1728764307.916823;faceUp;0.0001220703125;-0.266265869140625;-0.9880828857421875;
2024-10-12 23:18:26;1728764307.9665241;faceUp;-0.01568603515625;-0.2439727783203125;-1.093536376953125;
2024-10-12 23:18:26;1728764308.0166678;faceUp;-0.057647705078125;-0.1889190673828125;-1.156463623046875;
2024-10-12 23:18:26;1728764308.0663462;faceUp;-0.0285797119140625;-0.1840972900390625;-1.18914794921875;
2024-10-12 23:18:26;1728764308.1164489;faceUp;0.0009613037109375;-0.1123046875;-1.248260498046875;
2024-10-12 23:18:26;1728764308.166171;faceUp;-0.1052703857421875;-0.027435302734375;-1.0571746826171875;
2024-10-12 23:18:26;1728764308.216454;faceUp;-0.0152435302734375;-0.0389862060546875;-0.8591461181640625;
2024-10-12 23:18:26;1728764308.2659888;faceUp;0.0498504638671875;-0.0877838134765625;-0.86065673828125;
2024-10-12 23:18:26;1728764308.3161569;faceUp;-0.0106048583984375;-0.1350860595703125;-0.923004150390625;
2024-10-12 23:18:26;1728764308.366301;faceUp;-0.0111236572265625;-0.1047515869140625;-0.99090576171875;
2024-10-12 23:18:26;1728764308.415954;faceUp;-0.08392333984375;-0.1301422119140625;-0.85748291015625;
2024-10-12 23:18:26;1728764308.465392;faceUp;0.0063629150390625;-0.214599609375;-0.8300628662109375;
2024-10-12 23:18:26;1728764308.515421;faceUp;0.030853271484375;-0.248992919921875;-0.849395751953125;
2024-10-12 23:18:26;1728764308.566317;faceUp;0.0184783935546875;-0.2805023193359375;-0.8792572021484375;
2024-10-12 23:18:26;1728764308.6162639;faceUp;-0.009368896484375;-0.2761383056640625;-0.9454803466796875;
2024-10-12 23:18:26;1728764308.6659532;faceUp;-0.0310516357421875;-0.23846435546875;-1.073699951171875;
2024-10-12 23:18:26;1728764308.714848;faceUp;-0.0533905029296875;-0.270751953125;-1.139129638671875;
2024-10-12 23:18:26;1728764308.7665071;faceUp;-0.04791259765625;-0.1701507568359375;-1.294097900390625;
2024-10-12 23:18:26;1728764308.815363;faceUp;-0.1693267822265625;-0.0324249267578125;-1.111724853515625;
2024-10-12 23:18:26;1728764308.8653169;faceUp;-0.0793609619140625;-0.032928466796875;-0.8841705322265625;
2024-10-12 23:18:26;1728764308.915298;faceUp;0.017730712890625;-0.1268463134765625;-0.8910064697265625;
2024-10-12 23:18:26;1728764308.9652882;faceUp;0.0184173583984375;-0.136383056640625;-0.947418212890625;
2024-10-12 23:18:26;1728764309.014499;faceUp;-0.014801025390625;-0.1179046630859375;-0.91705322265625;
2024-10-12 23:18:26;1728764309.0643249;faceUp;-0.002532958984375;-0.098480224609375;-0.886199951171875;
2024-10-12 23:18:26;1728764309.114305;faceUp;-0.0299072265625;-0.1479339599609375;-0.9053802490234375;
2024-10-12 23:18:26;1728764309.164256;faceUp;-0.0340118408203125;-0.1820831298828125;-0.90484619140625;
2024-10-12 23:18:26;1728764309.213996;faceUp;-0.0930328369140625;-0.206390380859375;-0.9262237548828125;
2024-10-12 23:18:26;1728764309.263814;faceUp;-0.0883941650390625;-0.201751708984375;-0.9642181396484375;
2024-10-12 23:18:26;1728764309.313806;faceUp;-0.1150360107421875;-0.21356201171875;-1.0746307373046875;
2024-10-12 23:18:26;1728764309.363817;faceUp;-0.1548004150390625;-0.1548309326171875;-1.153961181640625;
2024-10-12 23:18:26;1728764309.413444;faceUp;-0.14288330078125;-0.189727783203125;-1.1715240478515625;
2024-10-12 23:18:26;1728764309.4635649;faceUp;-0.0767822265625;-0.1846466064453125;-1.2118988037109375;
2024-10-12 23:18:26;1728764309.513572;faceUp;-0.110321044921875;-0.0391845703125;-1.0759429931640625;
2024-10-12 23:18:26;1728764309.5633168;faceUp;-0.0703582763671875;-0.1157989501953125;-0.7734832763671875;
2024-10-12 23:18:26;1728764309.613446;faceUp;0.07794189453125;-0.181793212890625;-0.7757720947265625;
2024-10-12 23:18:26;1728764309.663878;faceUp;0.1062774658203125;-0.1987762451171875;-0.8724517822265625;
2024-10-12 23:18:26;1728764309.713221;faceUp;0.048126220703125;-0.1365814208984375;-0.963134765625;
2024-10-12 23:18:26;1728764309.7630491;faceUp;-0.02569580078125;-0.1116790771484375;-0.915679931640625;
2024-10-12 23:18:26;1728764309.813082;faceUp;0.0490570068359375;-0.1711273193359375;-0.8222503662109375;
2024-10-12 23:18:26;1728764309.862958;faceUp;0.02484130859375;-0.26959228515625;-0.8895111083984375;
2024-10-12 23:18:26;1728764309.912931;faceUp;0.06561279296875;-0.30731201171875;-0.9162750244140625;
2024-10-12 23:18:26;1728764309.962953;faceUp;0.04119873046875;-0.317047119140625;-0.994232177734375;
2024-10-12 23:18:26;1728764310.013064;faceUp;-0.0069122314453125;-0.2943115234375;-1.11541748046875;
2024-10-12 23:18:26;1728764310.062607;faceUp;-0.072723388671875;-0.238433837890625;-1.1859588623046875;
2024-10-12 23:18:26;1728764310.113198;faceUp;-0.062774658203125;-0.2059326171875;-1.2082061767578125;
2024-10-12 23:18:26;1728764310.162313;faceUp;-0.101959228515625;-0.0833282470703125;-1.223876953125;
2024-10-12 23:18:26;1728764310.212387;faceUp;-0.188751220703125;0.015411376953125;-0.927001953125;
2024-10-12 23:18:26;1728764310.262131;faceUp;-0.084625244140625;-0.062835693359375;-0.7706451416015625;
2024-10-12 23:18:26;1728764310.3122349;faceUp;0.00555419921875;-0.149017333984375;-0.8349761962890625;
2024-10-12 23:18:26;1728764310.362022;faceUp;-0.021240234375;-0.18060302734375;-0.8712005615234375;
2024-10-12 23:18:26;1728764310.411869;faceUp;-0.0159454345703125;-0.1898193359375;-0.9036712646484375;
2024-10-12 23:18:26;1728764310.461704;faceUp;-0.017486572265625;-0.2118988037109375;-0.8776092529296875;
2024-10-12 23:18:26;1728764310.511887;faceUp;0.0196075439453125;-0.2734527587890625;-0.9134521484375;
2024-10-12 23:18:26;1728764310.561559;faceUp;0.0137786865234375;-0.3004913330078125;-0.961578369140625;
2024-10-12 23:18:26;1728764310.611559;faceUp;0.0218963623046875;-0.3169708251953125;-1.02508544921875;
2024-10-12 23:18:26;1728764310.661212;faceUp;0.0079193115234375;-0.2568511962890625;-1.1288604736328125;
2024-10-12 23:18:26;1728764310.7112598;faceUp;0.005096435546875;-0.2530364990234375;-1.1864013671875;
2024-10-12 23:18:26;1728764310.761096;faceUp;0.0928192138671875;-0.128448486328125;-1.2705230712890625;
2024-10-12 23:18:26;1728764310.811096;faceUp;-0.0724334716796875;-0.0322265625;-1.0057830810546875;
2024-10-12 23:18:26;1728764310.8609629;faceUp;0.0558929443359375;-0.0823974609375;-0.827728271484375;
2024-10-12 23:18:26;1728764310.9108992;faceUp;0.12420654296875;-0.1395263671875;-0.862335205078125;
2024-10-12 23:18:26;1728764310.960639;faceUp;0.014801025390625;-0.165435791015625;-0.91424560546875;
2024-10-12 23:18:26;1728764311.0106292;faceUp;-0.0121612548828125;-0.1466064453125;-0.9375457763671875;
2024-10-12 23:18:26;1728764311.060456;faceUp;-0.02056884765625;-0.15814208984375;-0.8335418701171875;
2024-10-12 23:18:26;1728764311.110577;faceUp;0.01068115234375;-0.199951171875;-0.8446502685546875;
2024-10-12 23:18:26;1728764311.1601992;faceUp;0.0008697509765625;-0.1980743408203125;-0.8266143798828125;
2024-10-12 23:18:26;1728764311.210361;faceUp;0.0194549560546875;-0.2120819091796875;-0.887542724609375;
2024-10-12 23:18:26;1728764311.260083;faceUp;0.016510009765625;-0.219879150390625;-1.002349853515625;
2024-10-12 23:18:26;1728764311.310075;faceUp;-0.0596771240234375;-0.1547088623046875;-1.1511993408203125;
2024-10-12 23:18:26;1728764311.3599381;faceUp;-0.063446044921875;-0.1278839111328125;-1.3439178466796875;
2024-10-12 23:18:26;1728764311.409976;faceUp;-0.203277587890625;0.039886474609375;-1.3256683349609375;
2024-10-12 23:18:26;1728764311.459947;faceUp;-0.220428466796875;0.004913330078125;-0.984405517578125;
2024-10-12 23:18:26;1728764311.50966;faceUp;-0.1253814697265625;-0.0655517578125;-0.8540191650390625;
2024-10-12 23:18:26;1728764311.559647;faceUp;-0.0634307861328125;-0.1341552734375;-0.8384857177734375;
2024-10-12 23:18:26;1728764311.609684;faceUp;-4.57763671875e-05;-0.148681640625;-0.84393310546875;
2024-10-12 23:18:26;1728764311.659401;faceUp;-0.0358734130859375;-0.1467742919921875;-0.83331298828125;
2024-10-12 23:18:26;1728764311.709816;faceUp;-0.002105712890625;-0.181671142578125;-0.8826141357421875;
2024-10-12 23:18:26;1728764311.759304;faceUp;0.027618408203125;-0.214385986328125;-0.966094970703125;
2024-10-12 23:18:26;1728764311.809144;faceUp;0.021484375;-0.2539520263671875;-1.0011138916015625;
2024-10-12 23:18:26;1728764311.858819;faceUp;0.058135986328125;-0.2550201416015625;-1.062835693359375;
2024-10-12 23:18:26;1728764311.90888;faceUp;0.023590087890625;-0.198486328125;-1.1425933837890625;
2024-10-12 23:18:26;1728764311.958745;faceUp;0.042327880859375;-0.22271728515625;-1.159698486328125;
2024-10-12 23:18:26;1728764312.008956;faceUp;0.060546875;-0.1476287841796875;-1.251739501953125;
2024-10-12 23:18:26;1728764312.058594;faceUp;-0.043975830078125;-0.04583740234375;-1.0675811767578125;
2024-10-12 23:18:26;1728764312.108552;faceUp;0.054107666015625;-0.0889892578125;-0.8885040283203125;
2024-10-12 23:18:26;1728764312.1585221;faceUp;0.0511474609375;-0.159149169921875;-0.8871612548828125;
2024-10-12 23:18:26;1728764312.2084079;faceUp;0.017242431640625;-0.1590423583984375;-0.9130401611328125;
2024-10-12 23:18:26;1728764312.2583508;faceUp;-0.0124664306640625;-0.131011962890625;-0.86529541015625;
2024-10-12 23:18:26;1728764312.3083348;faceUp;-0.01751708984375;-0.181304931640625;-0.8048095703125;
2024-10-12 23:18:26;1728764312.358062;faceUp;0.027679443359375;-0.226959228515625;-0.8286285400390625;
2024-10-12 23:18:26;1728764312.407892;faceUp;-0.0219879150390625;-0.220672607421875;-0.855926513671875;
2024-10-12 23:18:26;1728764312.457876;faceUp;-0.00848388671875;-0.233367919921875;-0.9692535400390625;
2024-10-12 23:18:26;1728764312.507858;faceUp;-0.0501556396484375;-0.2326202392578125;-1.0804595947265625;
2024-10-12 23:18:26;1728764312.5576649;faceUp;-0.05078125;-0.211181640625;-1.1591796875;
2024-10-12 23:18:26;1728764312.607698;faceUp;-0.0934906005859375;-0.1715087890625;-1.1665191650390625;
2024-10-12 23:18:26;1728764312.657568;faceUp;-0.1685028076171875;-0.0751800537109375;-1.084808349609375;
2024-10-12 23:18:26;1728764312.7074618;faceUp;-0.1226959228515625;-0.065216064453125;-0.9665985107421875;
2024-10-12 23:18:26;1728764312.757221;faceUp;-0.1378326416015625;-0.10345458984375;-0.888763427734375;
2024-10-12 23:18:26;1728764312.807145;faceUp;-0.0925445556640625;-0.171875;-0.8683929443359375;
2024-10-12 23:18:26;1728764312.857008;faceUp;-0.022216796875;-0.1863250732421875;-0.88214111328125;
2024-10-12 23:18:26;1728764312.906909;faceUp;-0.039764404296875;-0.1645965576171875;-0.84112548828125;
2024-10-12 23:18:26;1728764312.9567518;faceUp;-0.028717041015625;-0.1996917724609375;-0.8850860595703125;
2024-10-12 23:18:26;1728764313.006717;faceUp;-0.03826904296875;-0.2227325439453125;-0.9240570068359375;
2024-10-12 23:18:26;1728764313.056497;faceUp;-0.0120697021484375;-0.2427978515625;-0.94317626953125;
2024-10-12 23:18:26;1728764313.106468;faceUp;-0.009368896484375;-0.25421142578125;-1.07208251953125;
2024-10-12 23:18:26;1728764313.156458;faceUp;-0.0511474609375;-0.1820068359375;-1.1668701171875;
2024-10-12 23:18:26;1728764313.206468;faceUp;0.0095062255859375;-0.1952362060546875;-1.19903564453125;
2024-10-12 23:18:26;1728764313.256174;faceUp;-0.02288818359375;-0.0893096923828125;-1.294769287109375;
2024-10-12 23:18:26;1728764313.306178;faceUp;-0.1151885986328125;-0.0446014404296875;-0.9726715087890625;
2024-10-12 23:18:26;1728764313.356106;faceUp;0.0528411865234375;-0.0761871337890625;-0.90313720703125;
2024-10-12 23:18:26;1728764313.406135;faceUp;0.00787353515625;-0.1393280029296875;-0.9243621826171875;
2024-10-12 23:18:26;1728764313.455847;faceUp;-0.0400543212890625;-0.1235809326171875;-0.960174560546875;
2024-10-12 23:18:26;1728764313.50602;faceUp;-0.030853271484375;-0.1373138427734375;-0.8160858154296875;
2024-10-12 23:18:26;1728764313.555634;faceUp;0.004974365234375;-0.1808013916015625;-0.81842041015625;
2024-10-12 23:18:26;1728764313.605764;faceUp;0.008270263671875;-0.2021331787109375;-0.8172454833984375;
2024-10-12 23:18:26;1728764313.657455;faceUp;0.0279541015625;-0.226104736328125;-0.8775634765625;
2024-10-12 23:18:26;1728764313.706106;faceUp;0.00067138671875;-0.2339324951171875;-0.9789886474609375;
2024-10-12 23:18:26;1728764313.75518;faceUp;0.00579833984375;-0.2115631103515625;-1.081939697265625;
2024-10-12 23:18:26;1728764313.806612;faceUp;-0.022003173828125;-0.22711181640625;-1.1732940673828125;
2024-10-12 23:18:26;1728764313.855322;faceUp;-0.061126708984375;-0.125640869140625;-1.2659149169921875;
2024-10-12 23:18:26;1728764313.905181;faceUp;-0.1634674072265625;-0.0115966796875;-1.119720458984375;
2024-10-12 23:18:26;1728764313.9551249;faceUp;-0.0870208740234375;-0.011627197265625;-0.8948822021484375;
2024-10-12 23:18:26;1728764314.006027;faceUp;-0.0207672119140625;-0.098602294921875;-0.832427978515625;
2024-10-12 23:18:26;1728764314.054775;faceUp;0.0190277099609375;-0.17254638671875;-0.8229522705078125;
2024-10-12 23:18:26;1728764314.1059341;faceUp;0.029266357421875;-0.1645355224609375;-0.835174560546875;
2024-10-12 23:18:26;1728764314.155139;faceUp;0.010345458984375;-0.1459503173828125;-0.8498687744140625;
2024-10-12 23:18:26;1728764314.204169;faceUp;-0.003692626953125;-0.1422576904296875;-0.9249114990234375;
2024-10-12 23:18:26;1728764314.2549338;faceUp;-0.02276611328125;-0.1475067138671875;-0.9775390625;
2024-10-12 23:18:26;1728764314.30591;faceUp;0.0125579833984375;-0.17462158203125;-1.006011962890625;
2024-10-12 23:18:26;1728764314.355709;faceUp;0.009368896484375;-0.175262451171875;-1.0929718017578125;
2024-10-12 23:18:26;1728764314.404155;faceUp;-0.04119873046875;-0.1061553955078125;-1.1607666015625;
2024-10-12 23:18:26;1728764314.455195;faceUp;0.0457611083984375;-0.1456298828125;-1.2210540771484375;
2024-10-12 23:18:26;1728764314.504009;faceUp;-0.000244140625;0.038909912109375;-1.3243560791015625;
2024-10-12 23:18:26;1728764314.555124;faceUp;-0.143310546875;0.0702667236328125;-1.02801513671875;
2024-10-12 23:18:26;1728764314.603652;faceUp;0.0438690185546875;-0.018524169921875;-0.9233551025390625;
2024-10-12 23:18:26;1728764314.653286;faceUp;0.039459228515625;-0.0470123291015625;-0.8899383544921875;
2024-10-12 23:18:26;1728764314.703638;faceUp;0.064422607421875;-0.0507965087890625;-0.9047088623046875;
2024-10-12 23:18:26;1728764314.75334;faceUp;0.0332183837890625;-0.027587890625;-0.9040985107421875;
2024-10-12 23:18:26;1728764314.8032908;faceUp;0.0435333251953125;-0.04412841796875;-0.89263916015625;
2024-10-12 23:18:26;1728764314.853032;faceUp;0.0455169677734375;-0.0877532958984375;-0.9494781494140625;
2024-10-12 23:18:26;1728764314.9027991;faceUp;0.017730712890625;-0.0839080810546875;-1.014617919921875;
2024-10-12 23:18:26;1728764314.9529119;faceUp;0.0171661376953125;-0.070526123046875;-0.993804931640625;
2024-10-12 23:18:26;1728764315.002979;faceUp;0.0262908935546875;-0.137359619140625;-1.055755615234375;
2024-10-12 23:18:26;1728764315.052815;faceUp;0.050201416015625;-0.157012939453125;-1.1234283447265625;
2024-10-12 23:18:26;1728764315.102792;faceUp;0.0208892822265625;-0.118194580078125;-1.135894775390625;
2024-10-12 23:18:26;1728764315.15267;faceUp;-0.0027923583984375;0.014984130859375;-1.21563720703125;
2024-10-12 23:18:26;1728764315.202703;faceUp;-0.0404052734375;0.086029052734375;-1.031097412109375;
2024-10-12 23:18:26;1728764315.2524018;faceUp;0.0687255859375;0.0242919921875;-0.835479736328125;
2024-10-12 23:18:26;1728764315.3023062;faceUp;0.1693115234375;-0.0191497802734375;-0.8886566162109375;
2024-10-12 23:18:26;1728764315.351985;faceUp;0.0753631591796875;0.01190185546875;-0.9497528076171875;
2024-10-12 23:18:26;1728764315.4021149;faceUp;0.0429229736328125;0.0837249755859375;-0.970947265625;
2024-10-12 23:18:26;1728764315.4519238;faceUp;-0.02978515625;0.093475341796875;-0.9727630615234375;
2024-10-12 23:18:26;1728764315.5021029;faceUp;-0.0800628662109375;0.03271484375;-0.9679718017578125;
2024-10-12 23:18:26;1728764315.551836;faceUp;-0.086639404296875;-0.0217132568359375;-0.937225341796875;
2024-10-12 23:18:26;1728764315.601866;faceUp;-0.07940673828125;-0.0704193115234375;-1.0008697509765625;
2024-10-12 23:18:26;1728764315.651555;faceUp;-0.11083984375;-0.0878448486328125;-1.0802154541015625;
2024-10-12 23:18:26;1728764315.701683;faceUp;-0.052490234375;-0.0490875244140625;-1.1164703369140625;
2024-10-12 23:18:26;1728764315.751349;faceUp;-0.0034027099609375;-0.069671630859375;-1.11376953125;
2024-10-12 23:18:26;1728764315.801358;faceUp;0.0272216796875;0.0054473876953125;-1.269927978515625;
2024-10-12 23:18:26;1728764315.851166;faceUp;-0.0709075927734375;0.0889434814453125;-1.1417083740234375;
2024-10-12 23:18:26;1728764315.901229;faceUp;0.0113677978515625;0.079254150390625;-0.96014404296875;
2024-10-12 23:18:26;1728764315.9510698;faceUp;0.05596923828125;0.01837158203125;-0.86065673828125;
2024-10-12 23:18:26;1728764316.001101;faceUp;0.082672119140625;-0.007720947265625;-0.91448974609375;
2024-10-12 23:18:26;1728764316.05074;faceUp;0.009735107421875;-0.005645751953125;-0.8869171142578125;
2024-10-12 23:18:26;1728764316.100795;faceUp;0.0424957275390625;-0.03717041015625;-0.8760528564453125;
2024-10-12 23:18:26;1728764316.150803;faceUp;0.020965576171875;-0.090789794921875;-0.88519287109375;
2024-10-12 23:18:26;1728764316.200646;faceUp;-0.02728271484375;-0.0861053466796875;-1.004638671875;
2024-10-12 23:18:26;1728764316.250325;faceUp;-0.0655364990234375;-0.0511016845703125;-1.0762939453125;
2024-10-12 23:18:26;1728764316.3003201;faceUp;-0.1163177490234375;-0.060333251953125;-1.095794677734375;
2024-10-12 23:18:26;1728764316.350233;faceUp;-0.13214111328125;-0.0460968017578125;-1.1332550048828125;
2024-10-12 23:18:26;1728764316.4001489;faceUp;-0.1339263916015625;-0.0327301025390625;-1.15350341796875;
2024-10-12 23:18:26;1728764316.4503222;faceUp;-0.1590728759765625;0.0169677734375;-1.0809783935546875;
2024-10-12 23:18:26;1728764316.500073;faceUp;-0.11602783203125;0.034759521484375;-0.962860107421875;
2024-10-12 23:18:26;1728764316.54982;faceUp;-0.1198883056640625;0.0306396484375;-0.9626007080078125;
2024-10-12 23:18:26;1728764316.599874;faceUp;-0.11822509765625;-0.0267333984375;-0.93988037109375;
2024-10-12 23:18:26;1728764316.649627;faceUp;-0.0649261474609375;-0.059356689453125;-0.8900604248046875;
2024-10-12 23:18:26;1728764316.6997461;faceUp;-0.0295257568359375;-0.0876007080078125;-0.849151611328125;
2024-10-12 23:18:26;1728764316.7494779;faceUp;-0.0162811279296875;-0.170867919921875;-0.831451416015625;
2024-10-12 23:18:26;1728764316.799477;faceUp;-0.019256591796875;-0.2178192138671875;-0.8678436279296875;
2024-10-12 23:18:26;1728764316.8491921;faceUp;0.0197601318359375;-0.2418365478515625;-0.9279327392578125;
2024-10-12 23:18:26;1728764316.89955;faceUp;-0.008636474609375;-0.2820587158203125;-0.982025146484375;
2024-10-12 23:18:26;1728764316.94902;faceUp;0.0146331787109375;-0.2855987548828125;-1.027313232421875;
2024-10-12 23:18:26;1728764316.99897;faceUp;0.0136260986328125;-0.2696990966796875;-1.1870269775390625;
2024-10-12 23:18:26;1728764317.048763;faceUp;0.0901947021484375;-0.277801513671875;-1.2791595458984375;
2024-10-12 23:18:26;1728764317.0989408;faceUp;0.032928466796875;-0.1511077880859375;-1.1084747314453125;
2024-10-12 23:18:26;1728764317.1483111;faceUp;0.037506103515625;-0.1632843017578125;-0.8206634521484375;
2024-10-12 23:18:26;1728764317.198695;faceUp;0.077239990234375;-0.1688385009765625;-0.8218536376953125;
2024-10-12 23:18:26;1728764317.248415;faceUp;0.000701904296875;-0.18231201171875;-0.80218505859375;
2024-10-12 23:18:26;1728764317.298541;faceUp;0.036865234375;-0.1910858154296875;-0.8693084716796875;
2024-10-12 23:18:26;1728764317.348452;faceUp;-0.0087432861328125;-0.1802978515625;-0.91009521484375;
2024-10-12 23:18:26;1728764317.398346;faceUp;-0.0191650390625;-0.210296630859375;-0.956451416015625;
2024-10-12 23:18:26;1728764317.4478068;faceUp;-0.0516204833984375;-0.19647216796875;-0.97064208984375;
2024-10-12 23:18:26;1728764317.4980211;faceUp;-0.0669403076171875;-0.2064971923828125;-0.9036102294921875;
2024-10-12 23:18:26;1728764317.5479321;faceUp;-0.04046630859375;-0.272369384765625;-0.9710693359375;
2024-10-12 23:18:26;1728764317.598053;faceUp;-0.1101226806640625;-0.23382568359375;-1.077056884765625;
2024-10-12 23:18:26;1728764317.64785;faceUp;-0.0785980224609375;-0.2237091064453125;-1.11907958984375;
2024-10-12 23:18:26;1728764317.697943;faceUp;-0.1336822509765625;-0.1209716796875;-1.256439208984375;
2024-10-12 23:18:26;1728764317.747484;faceUp;-0.2528839111328125;-0.014404296875;-1.0955657958984375;
2024-10-12 23:18:26;1728764317.7973518;faceUp;-0.1822052001953125;-0.0008544921875;-0.9162445068359375;
2024-10-12 23:18:26;1728764317.847217;faceUp;-0.13470458984375;-0.0889434814453125;-0.8563385009765625;
2024-10-12 23:18:26;1728764317.897369;faceUp;0.0023040771484375;-0.1610565185546875;-0.90533447265625;
2024-10-12 23:18:26;1728764317.9471889;faceUp;-0.0440826416015625;-0.1378021240234375;-0.8446502685546875;
2024-10-12 23:18:26;1728764317.997095;faceUp;-0.0057525634765625;-0.175323486328125;-0.84649658203125;
2024-10-12 23:18:26;1728764318.0468302;faceUp;-0.01654052734375;-0.2010345458984375;-0.907501220703125;
2024-10-12 23:18:26;1728764318.097031;faceUp;0.0264892578125;-0.2225189208984375;-0.9256591796875;
2024-10-12 23:18:26;1728764318.1467671;faceUp;0.05633544921875;-0.2226409912109375;-1.080352783203125;
2024-10-12 23:18:26;1728764318.196858;faceUp;0.03265380859375;-0.183074951171875;-1.118011474609375;
2024-10-12 23:18:26;1728764318.246489;faceUp;0.092681884765625;-0.307464599609375;-1.274993896484375;
2024-10-12 23:18:26;1728764318.296579;faceUp;-0.0121917724609375;-0.196807861328125;-1.358673095703125;
2024-10-12 23:18:26;1728764318.3462892;faceUp;-0.0604248046875;-0.16668701171875;-1.08026123046875;
2024-10-12 23:18:26;1728764318.396432;faceUp;0.04754638671875;-0.2267913818359375;-0.9468994140625;
2024-10-12 23:18:26;1728764318.4460912;faceUp;-0.0134124755859375;-0.268768310546875;-0.85528564453125;
2024-10-12 23:18:26;1728764318.496193;faceUp;0.0230865478515625;-0.243438720703125;-0.7702789306640625;
2024-10-12 23:18:26;1728764318.545885;faceUp;0.0077972412109375;-0.254608154296875;-0.6763916015625;
2024-10-12 23:18:26;1728764318.595921;faceUp;0.032073974609375;-0.303680419921875;-0.79803466796875;
2024-10-12 23:18:26;1728764318.645741;faceUp;-0.012054443359375;-0.29229736328125;-0.825286865234375;
2024-10-12 23:18:26;1728764318.69596;faceUp;-0.0272674560546875;-0.2929534912109375;-0.874542236328125;
2024-10-12 23:18:26;1728764318.745483;faceUp;-0.0215606689453125;-0.2993927001953125;-0.8902740478515625;
2024-10-12 23:18:26;1728764318.796421;faceUp;-0.04534912109375;-0.2809295654296875;-1.0743255615234375;
2024-10-12 23:18:26;1728764318.845788;faceUp;0.0045318603515625;-0.2764892578125;-1.1497344970703125;
2024-10-12 23:18:26;1728764318.895376;faceUp;-0.0989990234375;-0.169647216796875;-1.2501220703125;
2024-10-12 23:18:26;1728764318.945852;faceUp;-0.15435791015625;-0.129058837890625;-1.1054840087890625;
2024-10-12 23:18:26;1728764318.996022;faceUp;-0.11199951171875;-0.128021240234375;-0.978240966796875;
2024-10-12 23:18:26;1728764319.045961;faceUp;-0.0511322021484375;-0.1887969970703125;-0.8988189697265625;
2024-10-12 23:18:26;1728764319.0961661;faceUp;-0.0034332275390625;-0.196319580078125;-0.851715087890625;
2024-10-12 23:18:26;1728764319.145852;faceUp;-0.0179595947265625;-0.21759033203125;-0.7622833251953125;
2024-10-12 23:18:26;1728764319.19588;faceUp;-0.0012664794921875;-0.294189453125;-0.809112548828125;
2024-10-12 23:18:26;1728764319.245753;faceUp;0.0023956298828125;-0.3256378173828125;-0.8946685791015625;
2024-10-12 23:18:26;1728764319.295752;faceUp;0.029388427734375;-0.3492431640625;-0.974273681640625;
2024-10-12 23:18:26;1728764319.345529;faceUp;0.0282440185546875;-0.3458251953125;-1.062774658203125;
2024-10-12 23:18:26;1728764319.3958821;faceUp;-0.0118408203125;-0.2738800048828125;-1.196197509765625;
2024-10-12 23:18:26;1728764319.4457688;faceUp;0.0124053955078125;-0.2894287109375;-1.2425537109375;
2024-10-12 23:18:26;1728764319.4958029;faceUp;-0.0217132568359375;-0.1627349853515625;-1.2773895263671875;
2024-10-12 23:18:26;1728764319.5439901;faceUp;-0.1199188232421875;-0.08447265625;-0.9409027099609375;
2024-10-12 23:18:26;1728764319.593991;faceUp;0.0555267333984375;-0.0855560302734375;-0.865814208984375;
2024-10-12 23:18:26;1728764319.6437988;faceUp;0.021209716796875;-0.145172119140625;-0.8778228759765625;
2024-10-12 23:18:26;1728764319.6936789;faceUp;-0.0620269775390625;-0.12982177734375;-0.9795684814453125;
2024-10-12 23:18:26;1728764319.743806;faceUp;-0.03033447265625;-0.15545654296875;-0.8441925048828125;
2024-10-12 23:18:26;1728764319.793674;faceUp;-0.0009002685546875;-0.2036895751953125;-0.80712890625;
2024-10-12 23:18:26;1728764319.843426;faceUp;-0.032073974609375;-0.24041748046875;-0.7900848388671875;
2024-10-12 23:18:26;1728764319.8933558;faceUp;-0.003692626953125;-0.2652587890625;-0.8712158203125;
2024-10-12 23:18:26;1728764319.943166;faceUp;-0.0540008544921875;-0.2868499755859375;-0.913116455078125;
2024-10-12 23:18:26;1728764319.993174;faceUp;-0.0648193359375;-0.2763519287109375;-1.0735626220703125;
2024-10-12 23:18:26;1728764320.0428839;faceUp;-0.1141357421875;-0.2970428466796875;-1.1630706787109375;
2024-10-12 23:18:26;1728764320.09284;faceUp;-0.09564208984375;-0.192291259765625;-1.2444305419921875;
2024-10-12 23:18:26;1728764320.142705;faceUp;-0.169403076171875;-0.1002349853515625;-1.0838623046875;
2024-10-12 23:18:26;1728764320.192852;faceUp;-0.0816497802734375;-0.0909576416015625;-0.937408447265625;
2024-10-12 23:18:26;1728764320.242957;faceUp;-0.068115234375;-0.15966796875;-0.8747711181640625;
2024-10-12 23:18:26;1728764320.292873;faceUp;-0.03814697265625;-0.2065582275390625;-0.8696441650390625;
2024-10-12 23:18:26;1728764320.342781;faceUp;-0.022857666015625;-0.205078125;-0.8249053955078125;
2024-10-12 23:18:26;1728764320.392826;faceUp;-0.0014495849609375;-0.2476959228515625;-0.8105621337890625;
2024-10-12 23:18:26;1728764320.4427361;faceUp;-0.01031494140625;-0.2895965576171875;-0.892791748046875;
2024-10-12 23:18:26;1728764320.492475;faceUp;0.012054443359375;-0.2733917236328125;-0.9541015625;
2024-10-12 23:18:26;1728764320.542361;faceUp;0.0261077880859375;-0.289886474609375;-1.019866943359375;
2024-10-12 23:18:26;1728764320.5921159;faceUp;-0.0023040771484375;-0.2355194091796875;-1.157012939453125;
2024-10-12 23:18:26;1728764320.6418362;faceUp;0.0045928955078125;-0.2810821533203125;-1.1650848388671875;
2024-10-12 23:18:26;1728764320.691735;faceUp;0.1411590576171875;-0.149322509765625;-1.4047088623046875;
2024-10-12 23:18:26;1728764320.741699;faceUp;-0.09503173828125;-0.0241241455078125;-1.053314208984375;
2024-10-12 23:18:26;1728764320.7917008;faceUp;0.0872802734375;-0.048614501953125;-0.9250030517578125;
2024-10-12 23:18:26;1728764320.8416882;faceUp;0.0166168212890625;-0.0908355712890625;-0.841827392578125;
2024-10-12 23:18:26;1728764320.89156;faceUp;0.0125274658203125;-0.1410675048828125;-0.82562255859375;
2024-10-12 23:18:26;1728764320.9413152;faceUp;-0.031463623046875;-0.15008544921875;-0.785400390625;
2024-10-12 23:18:26;1728764320.991293;faceUp;-0.0227203369140625;-0.2069091796875;-0.77813720703125;
2024-10-12 23:18:26;1728764321.041034;faceUp;0.0242919921875;-0.2110595703125;-0.8838958740234375;
2024-10-12 23:18:26;1728764321.091083;faceUp;-0.025634765625;-0.21197509765625;-0.982696533203125;
2024-10-12 23:18:26;1728764321.140905;faceUp;-0.1351318359375;-0.2485809326171875;-0.97265625;
2024-10-12 23:18:26;1728764321.190981;faceUp;-0.126678466796875;-0.2858734130859375;-1.1006317138671875;
2024-10-12 23:18:26;1728764321.240617;faceUp;-0.1245269775390625;-0.36517333984375;-1.131439208984375;
2024-10-12 23:18:26;1728764321.29073;faceUp;-0.1748199462890625;-0.279815673828125;-1.230712890625;
2024-10-12 23:18:26;1728764321.340421;faceUp;-0.2586669921875;-0.146697998046875;-1.0030670166015625;
2024-10-12 23:18:26;1728764321.390517;faceUp;-0.144134521484375;-0.0736083984375;-0.9512176513671875;
2024-10-12 23:18:26;1728764321.440524;faceUp;-0.1682281494140625;-0.15771484375;-0.9266815185546875;
2024-10-12 23:18:26;1728764321.490285;faceUp;-0.0843963623046875;-0.1852264404296875;-0.9270477294921875;
2024-10-12 23:18:26;1728764321.540057;faceUp;-0.025787353515625;-0.1997833251953125;-0.7689056396484375;
2024-10-12 23:18:26;1728764321.590002;faceUp;0.05499267578125;-0.208831787109375;-0.7887420654296875;
2024-10-12 23:18:26;1728764321.6398458;faceUp;-0.0272979736328125;-0.214935302734375;-0.8348846435546875;
2024-10-12 23:18:26;1728764321.689884;faceUp;-0.0355987548828125;-0.21685791015625;-0.91204833984375;
2024-10-12 23:18:26;1728764321.739809;faceUp;-0.0404205322265625;-0.264373779296875;-0.9807891845703125;
2024-10-12 23:18:26;1728764321.7895079;faceUp;-0.0281829833984375;-0.2686920166015625;-1.09918212890625;
2024-10-12 23:18:26;1728764321.8393888;faceUp;-0.0925750732421875;-0.2235870361328125;-1.1543121337890625;
2024-10-12 23:18:26;1728764321.8894758;faceUp;-0.00640869140625;-0.2550201416015625;-1.24066162109375;
2024-10-12 23:18:26;1728764321.9392462;faceUp;-0.086212158203125;-0.0817108154296875;-1.2250823974609375;
2024-10-12 23:18:26;1728764321.989369;faceUp;-0.04302978515625;-0.086578369140625;-1.003631591796875;
2024-10-12 23:18:26;1728764322.03918;faceUp;0.0430755615234375;-0.0922088623046875;-0.9444427490234375;
2024-10-12 23:18:26;1728764322.089065;faceUp;-0.024078369140625;-0.1078948974609375;-0.8979034423828125;
2024-10-12 23:18:26;1728764322.138887;faceUp;-0.0504302978515625;-0.1234893798828125;-0.8258056640625;
2024-10-12 23:18:26;1728764322.188746;faceUp;-0.049285888671875;-0.1895751953125;-0.784820556640625;
2024-10-12 23:18:26;1728764322.2387109;faceUp;-0.04931640625;-0.2519073486328125;-0.79229736328125;
2024-10-12 23:18:26;1728764322.288753;faceUp;0.0250091552734375;-0.2860107421875;-0.9989013671875;
2024-10-12 23:18:26;1728764322.338634;faceUp;-0.0573577880859375;-0.1998138427734375;-1.1098785400390625;
2024-10-12 23:18:26;1728764322.388469;faceUp;-0.0817413330078125;-0.1667633056640625;-1.149322509765625;
2024-10-12 23:18:26;1728764322.438212;faceUp;-0.1223297119140625;-0.1420745849609375;-1.1607513427734375;
2024-10-12 23:18:26;1728764322.48827;faceUp;-0.1304473876953125;-0.131988525390625;-1.2363433837890625;
2024-10-12 23:18:26;1728764322.53819;faceUp;-0.16650390625;-0.098663330078125;-1.135986328125;
2024-10-12 23:18:26;1728764322.588228;faceUp;-0.1270751953125;-0.0471954345703125;-0.9691314697265625;
2024-10-12 23:18:26;1728764322.6379619;faceUp;-0.09613037109375;-0.0716552734375;-0.8251800537109375;
2024-10-12 23:18:26;1728764322.687763;faceUp;-0.1001129150390625;-0.1868896484375;-0.8154296875;
2024-10-12 23:18:26;1728764322.737764;faceUp;-0.0876922607421875;-0.25213623046875;-0.8238677978515625;
2024-10-12 23:18:26;1728764322.787631;faceUp;-0.05303955078125;-0.157958984375;-0.8908843994140625;
2024-10-12 23:18:26;1728764322.837555;faceUp;-0.05938720703125;-0.1220855712890625;-0.9234161376953125;
2024-10-12 23:18:26;1728764322.887536;faceUp;-0.06072998046875;-0.1441650390625;-0.957916259765625;
2024-10-12 23:18:26;1728764322.9374561;faceUp;-0.0748291015625;-0.1733245849609375;-0.989776611328125;
2024-10-12 23:18:26;1728764322.9873;faceUp;-0.07794189453125;-0.1844482421875;-1.0181121826171875;
2024-10-12 23:18:26;1728764323.037195;faceUp;-0.1142120361328125;-0.171722412109375;-1.082672119140625;
2024-10-12 23:18:26;1728764323.087134;faceUp;-0.1219024658203125;-0.182708740234375;-1.116668701171875;
2024-10-12 23:18:26;1728764323.1369271;faceUp;-0.052337646484375;-0.145843505859375;-1.2877349853515625;
2024-10-12 23:18:26;1728764323.1870441;faceUp;-0.15972900390625;-0.0265655517578125;-1.1277313232421875;
2024-10-12 23:18:26;1728764323.2368;faceUp;-0.0507049560546875;-0.0696258544921875;-0.9084320068359375;
2024-10-12 23:18:26;1728764323.286792;faceUp;-0.014251708984375;-0.1352386474609375;-0.8373565673828125;
2024-10-12 23:18:26;1728764323.336561;faceUp;0.0375518798828125;-0.183929443359375;-0.9147796630859375;
2024-10-12 23:18:26;1728764323.386364;faceUp;0.012420654296875;-0.1614837646484375;-0.9137420654296875;
2024-10-12 23:18:26;1728764323.436535;faceUp;-0.0614166259765625;-0.1759185791015625;-0.8672637939453125;
2024-10-12 23:18:26;1728764323.4865;faceUp;-0.019134521484375;-0.1828155517578125;-0.93377685546875;
2024-10-12 23:18:26;1728764323.5362039;faceUp;-0.0766448974609375;-0.1832427978515625;-0.944549560546875;
2024-10-12 23:18:26;1728764323.586232;faceUp;-0.09063720703125;-0.184417724609375;-0.9975738525390625;
2024-10-12 23:18:26;1728764323.6359801;faceUp;-0.1072998046875;-0.1852874755859375;-1.0186004638671875;
2024-10-12 23:18:26;1728764323.686096;faceUp;-0.110931396484375;-0.2155303955078125;-1.06298828125;
2024-10-12 23:18:26;1728764323.7358341;faceUp;-0.13116455078125;-0.1861724853515625;-1.1151580810546875;
2024-10-12 23:18:26;1728764323.785882;faceUp;-0.2107696533203125;-0.0986328125;-1.09320068359375;
2024-10-12 23:18:26;1728764323.835791;faceUp;-0.144134521484375;-0.0630950927734375;-1.0358428955078125;
2024-10-12 23:18:26;1728764323.885546;faceUp;-0.1315765380859375;-0.1214141845703125;-0.8554840087890625;
2024-10-12 23:18:26;1728764323.93541;faceUp;-0.049346923828125;-0.2030487060546875;-0.8050994873046875;
2024-10-12 23:18:26;1728764323.9856791;faceUp;0.0113677978515625;-0.2499237060546875;-0.812469482421875;
2024-10-12 23:18:26;1728764324.035769;faceUp;-0.0142669677734375;-0.25244140625;-0.813446044921875;
2024-10-12 23:18:26;1728764324.08582;faceUp;-0.02294921875;-0.3003387451171875;-0.8719635009765625;
2024-10-12 23:18:26;1728764324.1357799;faceUp;-0.033538818359375;-0.256500244140625;-0.96490478515625;
2024-10-12 23:18:26;1728764324.18568;faceUp;-0.0233306884765625;-0.28118896484375;-0.9920501708984375;
2024-10-12 23:18:26;1728764324.235135;faceUp;0.0316314697265625;-0.2645416259765625;-1.06024169921875;
2024-10-12 23:18:26;1728764324.285676;faceUp;-0.035003662109375;-0.2328033447265625;-1.15313720703125;
2024-10-12 23:18:26;1728764324.3350291;faceUp;0.05206298828125;-0.26153564453125;-1.2350311279296875;
2024-10-12 23:18:26;1728764324.385752;faceUp;0.011749267578125;-0.149627685546875;-1.230621337890625;
2024-10-12 23:18:26;1728764324.43575;faceUp;-0.02899169921875;-0.1387939453125;-0.8637237548828125;
2024-10-12 23:18:26;1728764324.485451;faceUp;0.1504364013671875;-0.1254119873046875;-0.865203857421875;
2024-10-12 23:18:26;1728764324.534699;faceUp;0.0638885498046875;-0.1353302001953125;-0.854766845703125;
2024-10-12 23:18:26;1728764324.585651;faceUp;0.0476226806640625;-0.1251220703125;-0.8824462890625;
2024-10-12 23:18:26;1728764324.634152;faceUp;0.02215576171875;-0.1335906982421875;-0.8668212890625;
2024-10-12 23:18:26;1728764324.684085;faceUp;0.0477294921875;-0.16436767578125;-0.9117431640625;
2024-10-12 23:18:26;1728764324.733875;faceUp;-0.049652099609375;-0.2212677001953125;-0.9956207275390625;
2024-10-12 23:18:26;1728764324.783887;faceUp;-0.1151885986328125;-0.237457275390625;-1.07275390625;
2024-10-12 23:18:26;1728764324.833652;faceUp;-0.1464996337890625;-0.23028564453125;-1.0389404296875;
2024-10-12 23:18:26;1728764324.8834581;faceUp;-0.135589599609375;-0.2378387451171875;-0.995880126953125;
2024-10-12 23:18:26;1728764324.93379;faceUp;-0.0681304931640625;-0.2820892333984375;-1.0232696533203125;
2024-10-12 23:18:26;1728764324.9836612;faceUp;-0.13330078125;-0.1153411865234375;-1.1826934814453125;
2024-10-12 23:18:26;1728764325.033371;faceUp;-0.2101593017578125;0.016937255859375;-1.04364013671875;
2024-10-12 23:18:26;1728764325.0834532;faceUp;-0.229156494140625;-0.0400543212890625;-0.954345703125;
2024-10-12 23:18:26;1728764325.133091;faceUp;-0.2137908935546875;-0.1885223388671875;-0.8391571044921875;
2024-10-12 23:18:26;1728764325.1832628;faceUp;-0.07525634765625;-0.261444091796875;-0.8373565673828125;
2024-10-12 23:18:26;1728764325.232973;faceUp;-0.035552978515625;-0.2618865966796875;-0.823974609375;
2024-10-12 23:18:26;1728764325.283076;faceUp;-0.0396728515625;-0.2228851318359375;-0.8536224365234375;
2024-10-12 23:18:26;1728764325.332691;faceUp;-0.046051025390625;-0.2237091064453125;-0.92047119140625;
2024-10-12 23:18:26;1728764325.38271;faceUp;-0.0316162109375;-0.2113037109375;-1.00201416015625;
2024-10-12 23:18:26;1728764325.4325619;faceUp;-0.0616302490234375;-0.219329833984375;-1.00323486328125;
2024-10-12 23:18:26;1728764325.482697;faceUp;0.003173828125;-0.228057861328125;-1.0357513427734375;
2024-10-12 23:18:26;1728764325.5325031;faceUp;-0.057525634765625;-0.1663818359375;-1.12542724609375;
2024-10-12 23:18:26;1728764325.582639;faceUp;0.0186004638671875;-0.23626708984375;-1.1641845703125;
2024-10-12 23:18:26;1728764325.632415;faceUp;-0.0256805419921875;-0.1173858642578125;-1.2671356201171875;
2024-10-12 23:18:26;1728764325.6825461;faceUp;-0.0111541748046875;-0.116790771484375;-0.9098358154296875;
2024-10-12 23:18:26;1728764325.731904;faceUp;0.146148681640625;-0.18475341796875;-0.8827362060546875;
2024-10-12 23:18:26;1728764325.781899;faceUp;0.09088134765625;-0.2083740234375;-0.9173583984375;
2024-10-12 23:18:26;1728764325.831687;faceUp;0.07965087890625;-0.13720703125;-1.001739501953125;
2024-10-12 23:18:26;1728764325.881898;faceUp;0.119842529296875;-0.1022186279296875;-0.9343719482421875;
2024-10-12 23:18:26;1728764325.931598;faceUp;0.13934326171875;-0.12481689453125;-0.9754486083984375;
2024-10-12 23:18:26;1728764325.981643;faceUp;-0.0066375732421875;-0.11224365234375;-0.9430999755859375;
2024-10-12 23:18:26;1728764326.031382;faceUp;-0.0876312255859375;-0.1408538818359375;-1.0008697509765625;
2024-10-12 23:18:26;1728764326.081445;faceUp;-0.068328857421875;-0.210418701171875;-0.970458984375;
2024-10-12 23:18:26;1728764326.1313171;faceUp;-0.0961761474609375;-0.2158050537109375;-1.0788421630859375;
2024-10-12 23:18:26;1728764326.181236;faceUp;-0.18145751953125;-0.1430816650390625;-1.0799560546875;
2024-10-12 23:18:26;1728764326.230983;faceUp;-0.1561431884765625;-0.209381103515625;-1.07098388671875;
2024-10-12 23:18:26;1728764326.281034;faceUp;-0.1940460205078125;-0.1112213134765625;-1.1320343017578125;
2024-10-12 23:18:26;1728764326.330943;faceUp;-0.237457275390625;-0.0396728515625;-0.9574737548828125;
2024-10-12 23:18:26;1728764326.380883;faceUp;-0.1030731201171875;-0.06402587890625;-0.9322662353515625;
2024-10-12 23:18:26;1728764326.430563;faceUp;-0.1402587890625;-0.0814056396484375;-0.8681793212890625;
2024-10-12 23:18:26;1728764326.480787;faceUp;-0.099853515625;-0.1512298583984375;-0.8380279541015625;
2024-10-12 23:18:26;1728764326.5303411;faceUp;-0.09576416015625;-0.165985107421875;-0.8401336669921875;
2024-10-12 23:18:26;1728764326.580538;faceUp;-0.040679931640625;-0.2252960205078125;-0.8304443359375;
2024-10-12 23:18:26;1728764326.630149;faceUp;-0.0526123046875;-0.2454833984375;-0.9308013916015625;
2024-10-12 23:18:26;1728764326.680544;faceUp;-0.0535125732421875;-0.23394775390625;-1.0066070556640625;
2024-10-12 23:18:26;1728764326.730091;faceUp;-0.0697021484375;-0.24603271484375;-1.04461669921875;
2024-10-12 23:18:26;1728764326.780182;faceUp;-0.0604705810546875;-0.3113861083984375;-1.031707763671875;
2024-10-12 23:18:26;1728764326.829781;faceUp;-0.022430419921875;-0.32989501953125;-1.0409088134765625;
2024-10-12 23:18:26;1728764326.879879;faceUp;-0.0657196044921875;-0.28851318359375;-1.06036376953125;
2024-10-12 23:18:26;1728764326.929569;faceUp;0.1144561767578125;-0.3370513916015625;-1.1540679931640625;
2024-10-12 23:18:26;1728764326.97977;faceUp;-0.0058746337890625;-0.1092529296875;-1.1395721435546875;
2024-10-12 23:18:26;1728764327.029502;faceUp;0.029815673828125;-0.1026763916015625;-0.9072113037109375;
2024-10-12 23:18:26;1728764327.0795999;faceUp;0.086822509765625;-0.1647491455078125;-0.8390045166015625;
2024-10-12 23:18:26;1728764327.129156;faceUp;0.109039306640625;-0.1980438232421875;-0.808868408203125;
2024-10-12 23:18:26;1728764327.179292;faceUp;0.123138427734375;-0.1747894287109375;-0.787261962890625;
2024-10-12 23:18:26;1728764327.228975;faceUp;0.1173095703125;-0.2067108154296875;-0.88470458984375;
2024-10-12 23:18:26;1728764327.279177;faceUp;0.066925048828125;-0.1794891357421875;-0.9687652587890625;
2024-10-12 23:18:26;1728764327.3289108;faceUp;-0.0245208740234375;-0.1654510498046875;-0.9430999755859375;
2024-10-12 23:18:26;1728764327.378885;faceUp;0.0167999267578125;-0.2172088623046875;-0.9247894287109375;
2024-10-12 23:18:26;1728764327.4285731;faceUp;-0.0055694580078125;-0.21502685546875;-1.0419464111328125;
2024-10-12 23:18:26;1728764327.478668;faceUp;-0.038482666015625;-0.208343505859375;-1.0412139892578125;
2024-10-12 23:18:26;1728764327.528367;faceUp;0.04095458984375;-0.188079833984375;-1.1602020263671875;
2024-10-12 23:18:26;1728764327.578555;faceUp;-0.0214080810546875;-0.0424346923828125;-1.2606658935546875;
2024-10-12 23:18:26;1728764327.628402;faceUp;-0.0728607177734375;0.0200958251953125;-1.036590576171875;
2024-10-12 23:18:26;1728764327.678515;faceUp;-0.0412445068359375;-0.03082275390625;-0.93023681640625;
2024-10-12 23:18:26;1728764327.728075;faceUp;-0.0262603759765625;-0.1038970947265625;-0.912139892578125;
2024-10-12 23:18:26;1728764327.778163;faceUp;0.05157470703125;-0.1706390380859375;-0.8676605224609375;
2024-10-12 23:18:26;1728764327.827756;faceUp;0.0619049072265625;-0.2039794921875;-0.8258514404296875;
2024-10-12 23:18:26;1728764327.877989;faceUp;0.1075897216796875;-0.2508392333984375;-0.8676605224609375;
2024-10-12 23:18:26;1728764327.92783;faceUp;0.0933837890625;-0.2417449951171875;-0.909881591796875;
2024-10-12 23:18:26;1728764327.977683;faceUp;0.1245574951171875;-0.287628173828125;-0.9654998779296875;
2024-10-12 23:18:26;1728764328.02733;faceUp;0.1168670654296875;-0.254608154296875;-1.07159423828125;
2024-10-12 23:18:26;1728764328.077554;faceUp;0.0775909423828125;-0.2428131103515625;-1.095916748046875;
2024-10-12 23:18:26;1728764328.127284;faceUp;0.14947509765625;-0.20513916015625;-1.242523193359375;
2024-10-12 23:18:26;1728764328.177534;faceUp;0.0323638916015625;-0.051544189453125;-1.147735595703125;
2024-10-12 23:18:26;1728764328.2272038;faceUp;0.0333099365234375;-0.071868896484375;-0.90771484375;
2024-10-12 23:18:26;1728764328.2770882;faceUp;0.1185760498046875;-0.1695709228515625;-0.94720458984375;
2024-10-12 23:18:26;1728764328.326898;faceUp;0.081695556640625;-0.20928955078125;-1.0130157470703125;
2024-10-12 23:18:26;1728764328.3769379;faceUp;0.088287353515625;-0.1388092041015625;-0.81719970703125;
2024-10-12 23:18:26;1728764328.4267;faceUp;0.0869598388671875;-0.17901611328125;-0.8806915283203125;
2024-10-12 23:18:26;1728764328.476872;faceUp;0.0618896484375;-0.20587158203125;-0.821197509765625;
2024-10-12 23:18:26;1728764328.526542;faceUp;0.0045013427734375;-0.1881103515625;-0.8825225830078125;
2024-10-12 23:18:26;1728764328.5765839;faceUp;0.019805908203125;-0.2055816650390625;-0.8570404052734375;
2024-10-12 23:18:26;1728764328.626278;faceUp;0.0248870849609375;-0.242401123046875;-0.9711456298828125;
2024-10-12 23:18:26;1728764328.676505;faceUp;0.01788330078125;-0.2154998779296875;-1.0030364990234375;
2024-10-12 23:18:26;1728764328.72608;faceUp;0.0498199462890625;-0.195709228515625;-1.116790771484375;
2024-10-12 23:18:26;1728764328.776237;faceUp;-0.072174072265625;0.0179290771484375;-1.212127685546875;
2024-10-12 23:18:26;1728764328.8258681;faceUp;-0.18603515625;0.0106964111328125;-1.0730743408203125;
2024-10-12 23:18:26;1728764328.875996;faceUp;-0.142303466796875;0.02301025390625;-1.0355377197265625;
2024-10-12 23:18:26;1728764328.925579;faceUp;-0.1428680419921875;-0.0582427978515625;-0.945159912109375;
2024-10-12 23:18:26;1728764328.975546;faceUp;-0.0137939453125;-0.098419189453125;-0.887481689453125;
2024-10-12 23:18:26;1728764329.025511;faceUp;-0.0170440673828125;-0.1381378173828125;-0.7989349365234375;
2024-10-12 23:18:26;1728764329.076007;faceUp;0.022003173828125;-0.1785736083984375;-0.83447265625;
2024-10-12 23:18:26;1728764329.12607;faceUp;0.0147247314453125;-0.241241455078125;-0.9182891845703125;
2024-10-12 23:18:26;1728764329.1753922;faceUp;0.0535125732421875;-0.2801513671875;-0.98797607421875;
2024-10-12 23:18:26;1728764329.2255878;faceUp;0.0377349853515625;-0.254302978515625;-1.07171630859375;
2024-10-12 23:18:26;1728764329.27543;faceUp;-0.0326690673828125;-0.1886444091796875;-1.178680419921875;
2024-10-12 23:18:26;1728764329.325474;faceUp;-0.0135040283203125;-0.180206298828125;-1.21710205078125;
2024-10-12 23:18:26;1728764329.376302;faceUp;-0.0207366943359375;-0.1163482666015625;-1.2611236572265625;
2024-10-12 23:18:26;1728764329.4258552;faceUp;-0.12042236328125;-0.0004425048828125;-1.091766357421875;
2024-10-12 23:18:26;1728764329.475823;faceUp;-0.0628509521484375;-0.0312347412109375;-0.8791656494140625;
2024-10-12 23:18:26;1728764329.5254312;faceUp;-0.025177001953125;-0.1227874755859375;-0.8782501220703125;
2024-10-12 23:18:26;1728764329.575573;faceUp;-0.0290374755859375;-0.1380157470703125;-0.9215850830078125;
2024-10-12 23:18:26;1728764329.625514;faceUp;-0.0587005615234375;-0.1308135986328125;-0.927276611328125;
2024-10-12 23:18:26;1728764329.675772;faceUp;-0.057281494140625;-0.13232421875;-0.8083953857421875;
2024-10-12 23:18:26;1728764329.7253141;faceUp;-0.0473785400390625;-0.172607421875;-0.8785858154296875;
2024-10-12 23:18:26;1728764329.775888;faceUp;-0.08734130859375;-0.181549072265625;-0.8836517333984375;
2024-10-12 23:18:26;1728764329.8239489;faceUp;-0.0841522216796875;-0.1883697509765625;-0.9451904296875;
2024-10-12 23:18:26;1728764329.873946;faceUp;-0.107269287109375;-0.2141571044921875;-0.9900970458984375;
2024-10-12 23:18:26;1728764329.923734;faceUp;-0.0780181884765625;-0.2482757568359375;-1.0562744140625;
2024-10-12 23:18:26;1728764329.97366;faceUp;-0.154266357421875;-0.1455841064453125;-1.238800048828125;
2024-10-12 23:18:26;1728764330.023573;faceUp;-0.2343902587890625;-0.0362701416015625;-1.1237335205078125;
2024-10-12 23:18:26;1728764330.07359;faceUp;-0.1819915771484375;-0.015960693359375;-0.9644012451171875;
2024-10-12 23:18:26;1728764330.1233249;faceUp;-0.199951171875;-0.0993804931640625;-0.91986083984375;
2024-10-12 23:18:26;1728764330.173424;faceUp;-0.1148834228515625;-0.1234893798828125;-0.90875244140625;
2024-10-12 23:18:26;1728764330.223211;faceUp;-0.0824127197265625;-0.1267547607421875;-0.804656982421875;
2024-10-12 23:18:26;1728764330.2732549;faceUp;-0.042724609375;-0.145233154296875;-0.8033447265625;
2024-10-12 23:18:26;1728764330.322976;faceUp;-0.022552490234375;-0.1980133056640625;-0.8784637451171875;
2024-10-12 23:18:26;1728764330.372892;faceUp;-0.020904541015625;-0.2111358642578125;-0.9343109130859375;
2024-10-12 23:18:26;1728764330.4226851;faceUp;-0.02630615234375;-0.2086029052734375;-1.0164794921875;
2024-10-12 23:18:26;1728764330.4728708;faceUp;-0.0216217041015625;-0.2314453125;-1.0855255126953125;
2024-10-12 23:18:26;1728764330.522589;faceUp;-0.03009033203125;-0.1703948974609375;-1.1860809326171875;
2024-10-12 23:18:26;1728764330.572669;faceUp;-0.06488037109375;-0.1961517333984375;-1.17095947265625;
2024-10-12 23:18:26;1728764330.622469;faceUp;-0.048065185546875;-0.1111602783203125;-1.2678680419921875;
2024-10-12 23:18:26;1728764330.67242;faceUp;-0.12103271484375;-0.03887939453125;-1.02032470703125;
2024-10-12 23:18:26;1728764330.722307;faceUp;-0.024688720703125;-0.086822509765625;-0.882293701171875;
2024-10-12 23:18:26;1728764330.7723331;faceUp;0.00823974609375;-0.1288604736328125;-0.8928070068359375;
2024-10-12 23:18:26;1728764330.822289;faceUp;-0.0399932861328125;-0.1474609375;-0.876708984375;
2024-10-12 23:18:26;1728764330.872253;faceUp;-0.0311737060546875;-0.160675048828125;-0.8792724609375;
2024-10-12 23:18:26;1728764330.922419;faceUp;-0.0611572265625;-0.1830902099609375;-0.871307373046875;
2024-10-12 23:18:26;1728764330.971868;faceUp;-0.06390380859375;-0.1893463134765625;-0.918212890625;
2024-10-12 23:18:26;1728764331.021646;faceUp;-0.1050872802734375;-0.17742919921875;-0.917022705078125;
2024-10-12 23:18:26;1728764331.07168;faceUp;-0.0964508056640625;-0.2048187255859375;-0.942962646484375;
2024-10-12 23:18:26;1728764331.121413;faceUp;-0.0885467529296875;-0.258941650390625;-0.9451904296875;
2024-10-12 23:18:26;1728764331.1714702;faceUp;-0.0986480712890625;-0.2239532470703125;-1.0374298095703125;
2024-10-12 23:18:26;1728764331.221229;faceUp;-0.122772216796875;-0.1648406982421875;-1.1025238037109375;
2024-10-12 23:18:26;1728764331.271244;faceUp;-0.1512298583984375;-0.1070709228515625;-1.095855712890625;
2024-10-12 23:18:26;1728764331.321024;faceUp;-0.1715850830078125;-0.1031646728515625;-1.019561767578125;
2024-10-12 23:18:26;1728764331.3711329;faceUp;-0.101287841796875;-0.12823486328125;-0.914337158203125;
2024-10-12 23:18:26;1728764331.4209418;faceUp;-0.0021209716796875;-0.18377685546875;-0.871490478515625;
2024-10-12 23:18:26;1728764331.470927;faceUp;0.0086822509765625;-0.2033538818359375;-0.9078216552734375;
2024-10-12 23:18:26;1728764331.520584;faceUp;4.57763671875e-05;-0.19305419921875;-0.9013214111328125;
2024-10-12 23:18:26;1728764331.570602;faceUp;0.0232086181640625;-0.209625244140625;-0.926971435546875;
2024-10-12 23:18:26;1728764331.6203442;faceUp;-0.0135650634765625;-0.1955413818359375;-0.957733154296875;
2024-10-12 23:18:26;1728764331.6705399;faceUp;-0.0140380859375;-0.1788177490234375;-0.9615325927734375;
2024-10-12 23:18:26;1728764331.72035;faceUp;-0.0003204345703125;-0.19354248046875;-0.97882080078125;
2024-10-12 23:18:26;1728764331.7701979;faceUp;-0.0105743408203125;-0.1566314697265625;-1.0294342041015625;
2024-10-12 23:18:26;1728764331.819995;faceUp;0.01495361328125;-0.159759521484375;-1.0686492919921875;
2024-10-12 23:18:26;1728764331.869831;faceUp;0.062896728515625;-0.1001739501953125;-1.2737274169921875;
2024-10-12 23:18:26;1728764331.9198909;faceUp;0.0096588134765625;-0.039093017578125;-1.0875396728515625;
2024-10-12 23:18:26;1728764331.969997;faceUp;0.121002197265625;-0.0692138671875;-0.9733428955078125;
2024-10-12 23:18:26;1728764332.019885;faceUp;0.0836639404296875;-0.0902252197265625;-0.9537506103515625;
2024-10-12 23:18:26;1728764332.0697088;faceUp;0.08428955078125;-0.076416015625;-0.9235382080078125;
2024-10-12 23:18:26;1728764332.119492;faceUp;0.10382080078125;-0.0874786376953125;-0.88720703125;
2024-10-12 23:18:26;1728764332.1695051;faceUp;0.11968994140625;-0.1195068359375;-0.9162750244140625;
2024-10-12 23:18:26;1728764332.219307;faceUp;0.08758544921875;-0.11431884765625;-0.97479248046875;
2024-10-12 23:18:26;1728764332.269351;faceUp;0.0411376953125;-0.116180419921875;-1.01007080078125;
2024-10-12 23:18:26;1728764332.31923;faceUp;0.0433349609375;-0.0858917236328125;-1.05352783203125;
2024-10-12 23:18:26;1728764332.368813;faceUp;-0.029632568359375;-0.0926666259765625;-1.04376220703125;
2024-10-12 23:18:26;1728764332.418915;faceUp;-0.0444183349609375;-0.111114501953125;-1.0816802978515625;
2024-10-12 23:18:26;1728764332.4689112;faceUp;-0.035369873046875;-0.1180572509765625;-1.221771240234375;
2024-10-12 23:18:26;1728764332.518681;faceUp;-0.0037689208984375;-0.1025848388671875;-1.170074462890625;
2024-10-12 23:18:26;1728764332.568681;faceUp;0.0170135498046875;-0.0853424072265625;-0.934051513671875;
2024-10-12 23:18:26;1728764332.61863;faceUp;0.04638671875;-0.114593505859375;-0.889373779296875;
2024-10-12 23:18:26;1728764332.6687279;faceUp;0.0421295166015625;-0.12451171875;-0.86480712890625;
2024-10-12 23:18:26;1728764332.718354;faceUp;0.0112762451171875;-0.131500244140625;-0.8833770751953125;
2024-10-12 23:18:26;1728764332.7684689;faceUp;0.0257110595703125;-0.1154022216796875;-0.9100799560546875;
2024-10-12 23:18:26;1728764332.818084;faceUp;-0.0893402099609375;-0.08697509765625;-0.89141845703125;
2024-10-12 23:18:26;1728764332.8681412;faceUp;-0.06683349609375;-0.10980224609375;-0.9776458740234375;
2024-10-12 23:18:26;1728764332.918019;faceUp;-0.0985870361328125;-0.1468048095703125;-0.929534912109375;
2024-10-12 23:18:26;1728764332.967894;faceUp;-0.03662109375;-0.246612548828125;-0.96624755859375;
2024-10-12 23:18:26;1728764333.017714;faceUp;-0.039215087890625;-0.2975616455078125;-1.0008697509765625;
2024-10-12 23:18:26;1728764333.0676708;faceUp;-0.041656494140625;-0.2745361328125;-1.092132568359375;
2024-10-12 23:18:26;1728764333.117507;faceUp;-0.04095458984375;-0.2252197265625;-1.11248779296875;
2024-10-12 23:18:26;1728764333.167581;faceUp;0.023193359375;-0.2017974853515625;-1.28045654296875;
2024-10-12 23:18:26;1728764333.217433;faceUp;-0.039825439453125;-0.0415802001953125;-1.04241943359375;
2024-10-12 23:18:26;1728764333.26725;faceUp;0.0313720703125;-0.100128173828125;-0.9693145751953125;
2024-10-12 23:18:26;1728764333.317039;faceUp;-0.0074462890625;-0.1318817138671875;-0.947265625;
2024-10-12 23:18:26;1728764333.367183;faceUp;-0.0372772216796875;-0.1770172119140625;-0.8800811767578125;
2024-10-12 23:18:26;1728764333.41693;faceUp;-0.037811279296875;-0.1789398193359375;-0.809539794921875;
2024-10-12 23:18:26;1728764333.4669518;faceUp;0.0062255859375;-0.2126312255859375;-0.81011962890625;
2024-10-12 23:18:26;1728764333.516782;faceUp;-0.002166748046875;-0.2274017333984375;-0.8562164306640625;
2024-10-12 23:18:26;1728764333.5666618;faceUp;-0.0368804931640625;-0.1954803466796875;-0.9438323974609375;
2024-10-12 23:18:26;1728764333.616554;faceUp;-0.0460662841796875;-0.2141876220703125;-0.909423828125;
2024-10-12 23:18:26;1728764333.666535;faceUp;-0.004486083984375;-0.2586822509765625;-0.9756622314453125;
2024-10-12 23:18:26;1728764333.7163281;faceUp;-0.0214996337890625;-0.2156829833984375;-1.0765533447265625;
2024-10-12 23:18:26;1728764333.766299;faceUp;-0.0058135986328125;-0.1965484619140625;-1.138397216796875;
2024-10-12 23:18:26;1728764333.8163571;faceUp;-0.08319091796875;-0.083465576171875;-1.182037353515625;
2024-10-12 23:18:26;1728764333.8662782;faceUp;-0.097625732421875;-0.03790283203125;-1.067718505859375;
2024-10-12 23:18:26;1728764333.9160008;faceUp;-0.0579833984375;-0.085784912109375;-0.9149932861328125;
2024-10-12 23:18:26;1728764333.966004;faceUp;0.030181884765625;-0.1813507080078125;-0.873291015625;
2024-10-12 23:18:26;1728764334.015822;faceUp;0.0385589599609375;-0.1889495849609375;-0.846221923828125;
2024-10-12 23:18:26;1728764334.065768;faceUp;-0.00201416015625;-0.1988677978515625;-0.831268310546875;
2024-10-12 23:18:26;1728764334.1158419;faceUp;0.0122222900390625;-0.261077880859375;-0.8793487548828125;
2024-10-12 23:18:26;1728764334.165707;faceUp;-0.009552001953125;-0.2462615966796875;-0.9384307861328125;
2024-10-12 23:18:26;1728764334.2153912;faceUp;-0.010772705078125;-0.2575225830078125;-1.002899169921875;
2024-10-12 23:18:26;1728764334.265235;faceUp;0.014068603515625;-0.2396392822265625;-1.0846405029296875;
2024-10-12 23:18:26;1728764334.315308;faceUp;-0.0434722900390625;-0.1788482666015625;-1.1424560546875;
2024-10-12 23:18:26;1728764334.3656402;faceUp;0.0317840576171875;-0.262969970703125;-1.1540374755859375;
2024-10-12 23:18:26;1728764334.4151769;faceUp;0.038116455078125;-0.0754852294921875;-1.212646484375;
2024-10-12 23:18:26;1728764334.464812;faceUp;-0.0278778076171875;-0.08056640625;-0.974395751953125;
2024-10-12 23:18:26;1728764334.514754;faceUp;0.0666046142578125;-0.0785980224609375;-0.968048095703125;
2024-10-12 23:18:26;1728764334.565434;faceUp;-0.0269012451171875;-0.108978271484375;-0.93780517578125;
2024-10-12 23:18:26;1728764334.614523;faceUp;-0.03778076171875;-0.0755462646484375;-0.934539794921875;
2024-10-12 23:18:26;1728764334.664968;faceUp;-0.0631103515625;-0.0748291015625;-0.8563995361328125;
2024-10-12 23:18:26;1728764334.714641;faceUp;-0.0227813720703125;-0.091094970703125;-0.7763214111328125;
2024-10-12 23:18:26;1728764334.7646608;faceUp;0.011199951171875;-0.141815185546875;-0.774261474609375;
2024-10-12 23:18:26;1728764334.814911;faceUp;-0.07281494140625;-0.1714324951171875;-0.9451141357421875;
2024-10-12 23:18:26;1728764334.8645248;faceUp;-0.11175537109375;-0.14031982421875;-1.152923583984375;
2024-10-12 23:18:26;1728764334.915101;faceUp;-0.1686553955078125;-0.1010284423828125;-1.2067108154296875;
2024-10-12 23:18:26;1728764334.965354;faceUp;-0.1619110107421875;-0.134735107421875;-1.2119903564453125;
2024-10-12 23:18:26;1728764335.013859;faceUp;-0.1177825927734375;-0.102386474609375;-1.2191619873046875;
2024-10-12 23:18:26;1728764335.0638819;faceUp;-0.20819091796875;0.025299072265625;-1.128204345703125;
2024-10-12 23:18:26;1728764335.1137629;faceUp;-0.1589813232421875;0.07080078125;-0.9083404541015625;
2024-10-12 23:18:26;1728764335.163594;faceUp;-0.09271240234375;-0.01116943359375;-0.8214569091796875;
2024-10-12 23:18:26;1728764335.213506;faceUp;-0.104583740234375;-0.0952911376953125;-0.8408966064453125;
2024-10-12 23:18:26;1728764335.26352;faceUp;-0.0551300048828125;-0.105224609375;-0.8662109375;
2024-10-12 23:18:26;1728764335.313292;faceUp;-0.0395355224609375;-0.09637451171875;-0.83197021484375;
2024-10-12 23:18:26;1728764335.363303;faceUp;-0.0110321044921875;-0.11798095703125;-0.8231964111328125;
2024-10-12 23:18:26;1728764335.412986;faceUp;-0.005615234375;-0.110321044921875;-0.879302978515625;
2024-10-12 23:18:26;1728764335.463033;faceUp;-0.0055084228515625;-0.0786895751953125;-0.9798431396484375;
2024-10-12 23:18:26;1728764335.512979;faceUp;-0.032958984375;-0.11590576171875;-1.07684326171875;
2024-10-12 23:18:26;1728764335.562892;faceUp;-0.063873291015625;-0.064361572265625;-1.17596435546875;
2024-10-12 23:18:26;1728764335.61264;faceUp;-0.137542724609375;-0.019500732421875;-1.174163818359375;
2024-10-12 23:18:26;1728764335.66287;faceUp;-0.0123138427734375;-0.060546875;-1.178009033203125;
2024-10-12 23:18:26;1728764335.712538;faceUp;-0.160400390625;0.09765625;-1.2706298828125;
2024-10-12 23:18:26;1728764335.762475;faceUp;-0.1204376220703125;0.053375244140625;-0.9763336181640625;
2024-10-12 23:18:26;1728764335.8123841;faceUp;-0.0629730224609375;-0.0093841552734375;-0.9515838623046875;
2024-10-12 23:18:26;1728764335.8623738;faceUp;-0.1074066162109375;-0.0311737060546875;-0.919708251953125;
2024-10-12 23:18:26;1728764335.912152;faceUp;-0.0971832275390625;-0.0393218994140625;-0.8350677490234375;
2024-10-12 23:18:26;1728764335.962064;faceUp;-0.0389556884765625;-0.08306884765625;-0.8259124755859375;
2024-10-12 23:18:26;1728764336.011742;faceUp;-0.0064697265625;-0.12176513671875;-0.855743408203125;
2024-10-12 23:18:26;1728764336.0620341;faceUp;0.030975341796875;-0.14837646484375;-0.94830322265625;
2024-10-12 23:18:26;1728764336.112279;faceUp;-0.0279083251953125;-0.1385040283203125;-0.985931396484375;
2024-10-12 23:18:26;1728764336.162123;faceUp;0.053131103515625;-0.1691436767578125;-1.02490234375;
2024-10-12 23:18:26;1728764336.211735;faceUp;0.025970458984375;-0.1634521484375;-1.164398193359375;
2024-10-12 23:18:26;1728764336.2615619;faceUp;-0.06927490234375;-0.1170654296875;-1.156646728515625;
2024-10-12 23:18:26;1728764336.3112469;faceUp;0.05169677734375;-0.186370849609375;-1.0536956787109375;
2024-10-12 23:18:26;1728764336.361156;faceUp;-0.02630615234375;-0.0653839111328125;-1.125244140625;
2024-10-12 23:18:26;1728764336.411097;faceUp;-0.1784820556640625;0.0780181884765625;-1.0345458984375;
2024-10-12 23:18:26;1728764336.461175;faceUp;-0.1472320556640625;0.1096649169921875;-1.0271759033203125;
2024-10-12 23:18:26;1728764336.5109649;faceUp;-0.19610595703125;0.0211639404296875;-0.9189605712890625;
2024-10-12 23:18:26;1728764336.560873;faceUp;-0.098663330078125;-0.089508056640625;-0.807159423828125;
2024-10-12 23:18:26;1728764336.610816;faceUp;-0.01043701171875;-0.1656646728515625;-0.8280029296875;
2024-10-12 23:18:26;1728764336.660958;faceUp;-0.013946533203125;-0.17364501953125;-0.8813018798828125;
2024-10-12 23:18:26;1728764336.7107182;faceUp;0.0455169677734375;-0.130645751953125;-0.941925048828125;
2024-10-12 23:18:26;1728764336.760582;faceUp;-0.024139404296875;-0.062835693359375;-1.0192718505859375;
2024-10-12 23:18:26;1728764336.8103461;faceUp;-0.1023712158203125;-0.037017822265625;-0.9833984375;
2024-10-12 23:18:26;1728764336.860239;faceUp;-0.059051513671875;-0.075347900390625;-0.9786529541015625;
2024-10-12 23:18:26;1728764336.910122;faceUp;-0.0817718505859375;-0.0659637451171875;-0.9003143310546875;
2024-10-12 23:18:26;1728764336.960099;faceUp;-0.0658721923828125;-0.035186767578125;-0.933837890625;
2024-10-12 23:18:26;1728764337.0099769;faceUp;-0.06427001953125;-0.0513458251953125;-0.9617767333984375;
2024-10-12 23:18:26;1728764337.0599551;faceUp;0.018310546875;0.0837860107421875;-1.29705810546875;
2024-10-12 23:18:26;1728764337.109868;faceUp;-0.0902557373046875;0.0006561279296875;-1.1100616455078125;
2024-10-12 23:18:26;1728764337.159553;faceUp;-0.00885009765625;-0.046142578125;-1.2381591796875;
2024-10-12 23:18:26;1728764337.209585;faceUp;-0.079620361328125;-0.02703857421875;-1.108612060546875;
2024-10-12 23:18:26;1728764337.2594972;faceUp;-0.0279083251953125;-0.0453338623046875;-0.8995513916015625;
2024-10-12 23:18:26;1728764337.309462;faceUp;0.0131072998046875;-0.1019134521484375;-0.8726806640625;
2024-10-12 23:18:26;1728764337.3595371;faceUp;-0.0126495361328125;-0.1275177001953125;-0.96319580078125;
2024-10-12 23:18:26;1728764337.409123;faceUp;-0.1585235595703125;-0.086761474609375;-1.0297393798828125;
2024-10-12 23:18:26;1728764337.459105;faceUp;-0.158477783203125;-0.0961761474609375;-0.933319091796875;
2024-10-12 23:18:26;1728764337.508923;faceUp;-0.153717041015625;-0.1172943115234375;-0.949462890625;
2024-10-12 23:18:26;1728764337.55892;faceUp;-0.1655426025390625;-0.1626739501953125;-0.9302520751953125;
2024-10-12 23:18:26;1728764337.608876;faceUp;-0.185150146484375;-0.06494140625;-1.1890106201171875;
2024-10-12 23:18:26;1728764337.658825;faceUp;-0.28839111328125;0.1153564453125;-1.2066650390625;
2024-10-12 23:18:26;1728764337.7086082;faceUp;-0.3387603759765625;0.0531768798828125;-1.009185791015625;
2024-10-12 23:18:26;1728764337.7584229;faceUp;-0.2015533447265625;-0.0653533935546875;-0.87066650390625;
2024-10-12 23:18:26;1728764337.8082619;faceUp;-0.064117431640625;-0.1443939208984375;-0.8549957275390625;
2024-10-12 23:18:26;1728764337.858451;faceUp;-0.1050872802734375;-0.17681884765625;-0.767486572265625;
2024-10-12 23:18:26;1728764337.908309;faceUp;-0.0655059814453125;-0.20391845703125;-0.7970733642578125;
2024-10-12 23:18:26;1728764337.958363;faceUp;-0.0857391357421875;-0.2138519287109375;-0.8945465087890625;
2024-10-12 23:18:26;1728764338.0081282;faceUp;-0.0604400634765625;-0.20892333984375;-0.9376983642578125;
2024-10-12 23:18:26;1728764338.058059;faceUp;-0.0754547119140625;-0.166748046875;-1.043731689453125;
2024-10-12 23:18:26;1728764338.108008;faceUp;-0.0381011962890625;-0.1659088134765625;-1.1136322021484375;
2024-10-12 23:18:26;1728764338.158123;faceUp;0.0046539306640625;-0.1932525634765625;-1.195526123046875;
2024-10-12 23:18:26;1728764338.207962;faceUp;-0.014801025390625;-0.09881591796875;-1.2654876708984375;
2024-10-12 23:18:26;1728764338.257628;faceUp;-0.08538818359375;0.029693603515625;-1.11627197265625;
2024-10-12 23:18:26;1728764338.307292;faceUp;-0.071014404296875;-0.004486083984375;-0.912384033203125;
2024-10-12 23:18:26;1728764338.357442;faceUp;-0.0179443359375;-0.059967041015625;-0.9309539794921875;
2024-10-12 23:18:26;1728764338.4072418;faceUp;-0.0826568603515625;-0.0436553955078125;-0.947662353515625;
2024-10-12 23:18:26;1728764338.457303;faceUp;-0.071075439453125;-0.0535125732421875;-0.9041595458984375;
2024-10-12 23:18:26;1728764338.507103;faceUp;-0.034637451171875;-0.0979156494140625;-0.8211212158203125;
2024-10-12 23:18:26;1728764338.556989;faceUp;-0.0485687255859375;-0.1338348388671875;-0.9141082763671875;
2024-10-12 23:18:26;1728764338.6068401;faceUp;-0.045135498046875;-0.1241455078125;-0.8441162109375;
2024-10-12 23:18:26;1728764338.656824;faceUp;-0.0451812744140625;-0.1643524169921875;-0.894195556640625;
2024-10-12 23:18:26;1728764338.70673;faceUp;-0.045440673828125;-0.157928466796875;-0.975341796875;
2024-10-12 23:18:26;1728764338.7567492;faceUp;-0.0913543701171875;-0.1148223876953125;-1.0535430908203125;
2024-10-12 23:18:26;1728764338.806456;faceUp;-0.0329742431640625;-0.2000732421875;-1.0639801025390625;
2024-10-12 23:18:26;1728764338.856427;faceUp;-0.19598388671875;-0.01470947265625;-1.309112548828125;
2024-10-12 23:18:26;1728764338.905956;faceUp;-0.2463531494140625;-0.00738525390625;-0.981170654296875;
2024-10-12 23:18:26;1728764338.95619;faceUp;-0.097442626953125;-0.084259033203125;-0.9701080322265625;
2024-10-12 23:18:26;1728764339.0060759;faceUp;-0.1291656494140625;-0.1389617919921875;-1.007537841796875;
2024-10-12 23:18:26;1728764339.056066;faceUp;-0.09564208984375;-0.139984130859375;-0.8570709228515625;
2024-10-12 23:18:26;1728764339.105921;faceUp;-0.0574493408203125;-0.190185546875;-0.81512451171875;
2024-10-12 23:18:26;1728764339.15587;faceUp;-0.0387420654296875;-0.2437591552734375;-0.83038330078125;
2024-10-12 23:18:26;1728764339.205762;faceUp;0.010589599609375;-0.275238037109375;-0.8729095458984375;
2024-10-12 23:18:26;1728764339.255688;faceUp;0.05078125;-0.2839508056640625;-0.9676971435546875;
2024-10-12 23:18:26;1728764339.305438;faceUp;0.0236663818359375;-0.23602294921875;-1.078277587890625;
2024-10-12 23:18:26;1728764339.355624;faceUp;0.0181732177734375;-0.16033935546875;-1.1426849365234375;
2024-10-12 23:18:26;1728764339.405364;faceUp;0.0682220458984375;-0.1646575927734375;-1.2181549072265625;
2024-10-12 23:18:26;1728764339.4553308;faceUp;0.02960205078125;0.010528564453125;-1.3181915283203125;
2024-10-12 23:18:26;1728764339.505157;faceUp;-0.1157379150390625;0.05059814453125;-1.0336151123046875;
2024-10-12 23:18:26;1728764339.5551229;faceUp;0.0489349365234375;0.08245849609375;-1.0339813232421875;
2024-10-12 23:18:26;1728764339.60485;faceUp;0.0269775390625;0.036224365234375;-1.014617919921875;
2024-10-12 23:18:26;1728764339.6549149;faceUp;-0.045654296875;0.00482177734375;-0.95758056640625;
2024-10-12 23:18:26;1728764339.70474;faceUp;0.035247802734375;-0.11077880859375;-0.8123321533203125;
2024-10-12 23:18:26;1728764339.754675;faceUp;0.082000732421875;-0.185394287109375;-0.7633514404296875;
2024-10-12 23:18:26;1728764339.805059;faceUp;0.0542144775390625;-0.2279052734375;-0.85223388671875;
2024-10-12 23:18:26;1728764339.854399;faceUp;0.0089111328125;-0.2271575927734375;-0.9248809814453125;
2024-10-12 23:18:26;1728764339.904282;faceUp;-0.060546875;-0.2552337646484375;-0.9798583984375;
2024-10-12 23:18:26;1728764339.954586;faceUp;-0.031463623046875;-0.26715087890625;-1.001708984375;
2024-10-12 23:18:26;1728764340.004671;faceUp;-0.0779876708984375;-0.3434906005859375;-0.983612060546875;
2024-10-12 23:18:26;1728764340.054286;faceUp;-0.10247802734375;-0.37469482421875;-1.0032501220703125;
2024-10-12 23:18:26;1728764340.104453;faceUp;-0.253814697265625;-0.223358154296875;-0.990936279296875;
2024-10-12 23:18:26;1728764340.154134;faceUp;-0.222900390625;-0.1312255859375;-0.928680419921875;
2024-10-12 23:18:26;1728764340.20442;faceUp;-0.130859375;-0.10662841796875;-0.960113525390625;
2024-10-12 23:18:26;1728764340.2542992;faceUp;-0.1575164794921875;-0.1258392333984375;-0.915313720703125;
2024-10-12 23:18:26;1728764340.3042831;faceUp;-0.0752716064453125;-0.1631622314453125;-0.8879547119140625;
2024-10-12 23:18:26;1728764340.353551;faceUp;-0.03955078125;-0.2045135498046875;-0.8833160400390625;
2024-10-12 23:18:26;1728764340.404011;faceUp;-0.059417724609375;-0.2173004150390625;-0.9052886962890625;
2024-10-12 23:18:26;1728764340.4541512;faceUp;-0.10589599609375;-0.19671630859375;-0.97955322265625;
2024-10-12 23:18:26;1728764340.503224;faceUp;-0.1112060546875;-0.21343994140625;-1.014007568359375;
2024-10-12 23:18:26;1728764340.554487;faceUp;-0.0889434814453125;-0.2048187255859375;-1.0737762451171875;
2024-10-12 23:18:26;1728764340.60422;faceUp;-0.077362060546875;-0.09063720703125;-1.1597747802734375;
2024-10-12 23:18:26;1728764340.654335;faceUp;-0.0146331787109375;-0.1087188720703125;-1.1661529541015625;
2024-10-12 23:18:26;1728764340.702825;faceUp;-0.089202880859375;-0.00396728515625;-1.323394775390625;
2024-10-12 23:18:26;1728764340.752646;faceUp;-0.2538299560546875;-0.0067291259765625;-1.0386962890625;
2024-10-12 23:18:26;1728764340.8025188;faceUp;-0.0959625244140625;-0.0791168212890625;-0.8792572021484375;
2024-10-12 23:18:26;1728764340.8525481;faceUp;-0.0274658203125;-0.16046142578125;-0.8428955078125;
2024-10-12 23:18:26;1728764340.90225;faceUp;-0.09637451171875;-0.1954498291015625;-0.836578369140625;
2024-10-12 23:18:26;1728764340.952304;faceUp;-0.1022186279296875;-0.1788330078125;-0.9028472900390625;
2024-10-12 23:18:26;1728764341.0021582;faceUp;-0.1297607421875;-0.135467529296875;-0.882476806640625;
2024-10-12 23:18:26;1728764341.05205;faceUp;-0.1273193359375;-0.1475372314453125;-0.99365234375;
2024-10-12 23:18:26;1728764341.101987;faceUp;-0.1421356201171875;-0.1024322509765625;-1.04168701171875;
2024-10-12 23:18:26;1728764341.152134;faceUp;-0.2202911376953125;-0.10772705078125;-1.035614013671875;
2024-10-12 23:18:26;1728764341.202001;faceUp;-0.1923370361328125;-0.12225341796875;-1.0335845947265625;
2024-10-12 23:18:26;1728764341.251957;faceUp;-0.19561767578125;-0.148681640625;-0.99310302734375;
2024-10-12 23:18:26;1728764341.30162;faceUp;-0.132537841796875;-0.1467132568359375;-0.9959869384765625;
2024-10-12 23:18:26;1728764341.3516278;faceUp;-0.17523193359375;-0.085540771484375;-1.0573272705078125;
2024-10-12 23:18:26;1728764341.401382;faceUp;-0.1567535400390625;-0.0280303955078125;-1.0156402587890625;
2024-10-12 23:18:26;1728764341.4513788;faceUp;-0.1480560302734375;-0.081695556640625;-0.83624267578125;
2024-10-12 23:18:26;1728764341.501291;faceUp;-0.018798828125;-0.1851348876953125;-0.8408660888671875;
2024-10-12 23:18:26;1728764341.551111;faceUp;-0.0025787353515625;-0.2079315185546875;-0.885498046875;
2024-10-12 23:18:26;1728764341.6010199;faceUp;-0.0370941162109375;-0.18939208984375;-0.897308349609375;
2024-10-12 23:18:26;1728764341.651002;faceUp;-0.0594635009765625;-0.1882781982421875;-0.927093505859375;
2024-10-12 23:18:26;1728764341.700948;faceUp;-0.033477783203125;-0.213714599609375;-0.9781341552734375;
2024-10-12 23:18:26;1728764341.750927;faceUp;-0.06719970703125;-0.226806640625;-0.9924468994140625;
2024-10-12 23:18:26;1728764341.8006039;faceUp;-0.043609619140625;-0.2607574462890625;-1.076507568359375;
2024-10-12 23:18:26;1728764341.8505158;faceUp;-0.073486328125;-0.1981964111328125;-1.13629150390625;
2024-10-12 23:18:26;1728764341.900649;faceUp;0.0088653564453125;-0.2653350830078125;-1.10601806640625;
2024-10-12 23:18:26;1728764341.950355;faceUp;-0.0409698486328125;-0.123687744140625;-1.2790985107421875;
2024-10-12 23:18:26;1728764342.0003319;faceUp;-0.1176605224609375;-0.0758514404296875;-0.9891357421875;
2024-10-12 23:18:26;1728764342.050243;faceUp;0.0111846923828125;-0.1168365478515625;-0.9055633544921875;
2024-10-12 23:18:26;1728764342.0999699;faceUp;-0.0224761962890625;-0.170623779296875;-0.9056549072265625;
2024-10-12 23:18:26;1728764342.149987;faceUp;-0.02001953125;-0.183349609375;-0.8969573974609375;
2024-10-12 23:18:26;1728764342.199765;faceUp;-0.03271484375;-0.179718017578125;-0.866302490234375;
2024-10-12 23:18:26;1728764342.2498012;faceUp;-0.027984619140625;-0.196044921875;-0.811614990234375;
2024-10-12 23:18:26;1728764342.299609;faceUp;0.007232666015625;-0.222137451171875;-0.83636474609375;
2024-10-12 23:18:26;1728764342.349907;faceUp;0.029998779296875;-0.183258056640625;-0.9668121337890625;
2024-10-12 23:18:26;1728764342.39938;faceUp;-0.029632568359375;-0.136688232421875;-1.0274200439453125;
2024-10-12 23:18:26;1728764342.449389;faceUp;-0.04486083984375;-0.2071075439453125;-1.13134765625;
2024-10-12 23:18:26;1728764342.4991941;faceUp;-0.0170440673828125;-0.2297821044921875;-1.10888671875;
2024-10-12 23:18:26;1728764342.5492291;faceUp;-0.013671875;-0.21075439453125;-1.155181884765625;
2024-10-12 23:18:26;1728764342.599139;faceUp;-0.0633087158203125;-0.105194091796875;-1.049468994140625;
2024-10-12 23:18:26;1728764342.649152;faceUp;-0.0612030029296875;-0.092498779296875;-0.971435546875;
2024-10-12 23:18:26;1728764342.6989;faceUp;-0.0275115966796875;-0.15533447265625;-0.9312286376953125;
2024-10-12 23:18:26;1728764342.748841;faceUp;0.0003204345703125;-0.210968017578125;-0.893524169921875;
2024-10-12 23:18:26;1728764342.79873;faceUp;-0.0003204345703125;-0.21978759765625;-0.89508056640625;
2024-10-12 23:18:26;1728764342.848806;faceUp;-0.00421142578125;-0.1986846923828125;-0.8577880859375;
2024-10-12 23:18:26;1728764342.8988209;faceUp;-0.0012969970703125;-0.2190399169921875;-0.8903350830078125;
2024-10-12 23:18:26;1728764342.948523;faceUp;-0.024566650390625;-0.2043914794921875;-0.946044921875;
2024-10-12 23:18:26;1728764342.998324;faceUp;-0.0318603515625;-0.1944427490234375;-0.9602203369140625;
2024-10-12 23:18:26;1728764343.048176;faceUp;-0.02911376953125;-0.177001953125;-1.0006256103515625;
2024-10-12 23:18:26;1728764343.098003;faceUp;-0.0929412841796875;-0.1524658203125;-1.0535888671875;
2024-10-12 23:18:26;1728764343.148046;faceUp;0.0205230712890625;-0.2760162353515625;-1.063140869140625;
2024-10-12 23:18:26;1728764343.198011;faceUp;-0.00726318359375;-0.1326904296875;-1.33428955078125;
2024-10-12 23:18:26;1728764343.2477589;faceUp;-0.1079559326171875;-0.04473876953125;-0.960845947265625;
2024-10-12 23:18:26;1728764343.297648;faceUp;0.0849151611328125;-0.152587890625;-0.879302978515625;
2024-10-12 23:18:26;1728764343.347748;faceUp;0.0341033935546875;-0.17926025390625;-0.91552734375;
2024-10-12 23:18:26;1728764343.397466;faceUp;0.0120697021484375;-0.1652374267578125;-0.9024810791015625;
2024-10-12 23:18:26;1728764343.447496;faceUp;-0.0206451416015625;-0.1611175537109375;-0.916107177734375;
2024-10-12 23:18:26;1728764343.497253;faceUp;-0.0210723876953125;-0.203643798828125;-0.9199066162109375;
2024-10-12 23:18:26;1728764343.5472589;faceUp;-0.02392578125;-0.2232513427734375;-0.97686767578125;
2024-10-12 23:18:26;1728764343.5971231;faceUp;-0.09698486328125;-0.2423248291015625;-1.079833984375;
2024-10-12 23:18:26;1728764343.647184;faceUp;-0.10858154296875;-0.2303619384765625;-0.96612548828125;
2024-10-12 23:18:26;1728764343.6968842;faceUp;-0.0666046142578125;-0.2917327880859375;-0.9692840576171875;
2024-10-12 23:18:26;1728764343.746883;faceUp;-0.081268310546875;-0.3029632568359375;-0.9925079345703125;
2024-10-12 23:18:26;1728764343.7965112;faceUp;-0.074127197265625;-0.28741455078125;-1.0083770751953125;
2024-10-12 23:18:26;1728764343.846695;faceUp;-0.041046142578125;-0.27935791015625;-1.0346832275390625;
2024-10-12 23:18:26;1728764343.896668;faceUp;-0.047027587890625;-0.196685791015625;-1.096282958984375;
2024-10-12 23:18:26;1728764343.946451;faceUp;-0.156341552734375;-0.104705810546875;-1.044586181640625;
2024-10-12 23:18:26;1728764343.9964972;faceUp;-0.1167449951171875;-0.0838470458984375;-1.014556884765625;
2024-10-12 23:18:26;1728764344.046432;faceUp;-0.0843963623046875;-0.1588287353515625;-0.919891357421875;
2024-10-12 23:18:26;1728764344.096417;faceUp;-0.0078125;-0.2213134765625;-0.8846893310546875;
2024-10-12 23:18:26;1728764344.146143;faceUp;-0.0223541259765625;-0.2298583984375;-0.855010986328125;
2024-10-12 23:18:26;1728764344.195949;faceUp;0.015045166015625;-0.2264404296875;-0.8538055419921875;
2024-10-12 23:18:26;1728764344.245738;faceUp;-0.005828857421875;-0.2525787353515625;-0.884552001953125;
2024-10-12 23:18:26;1728764344.295932;faceUp;-0.0678253173828125;-0.371429443359375;-0.91021728515625;
2024-10-12 23:18:26;1728764344.345827;faceUp;0.01904296875;-0.423583984375;-1.0039520263671875;
2024-10-12 23:18:26;1728764344.395718;faceUp;0.06024169921875;-0.3985595703125;-1.0705413818359375;
2024-10-12 23:18:26;1728764344.445791;faceUp;0.0536956787109375;-0.34027099609375;-1.101959228515625;
2024-10-12 23:18:26;1728764344.495549;faceUp;0.2349090576171875;-0.3235931396484375;-1.188873291015625;
2024-10-12 23:18:26;1728764344.5453792;faceUp;0.223968505859375;-0.118927001953125;-1.09307861328125;
2024-10-12 23:18:26;1728764344.59551;faceUp;0.184906005859375;-0.126434326171875;-0.7293243408203125;
2024-10-12 23:18:26;1728764344.647465;faceUp;0.3367156982421875;-0.1405487060546875;-0.8133392333984375;
2024-10-12 23:18:26;1728764344.695312;faceUp;0.2236328125;-0.133087158203125;-0.7772216796875;
2024-10-12 23:18:26;1728764344.745329;faceUp;0.1659698486328125;-0.212554931640625;-0.8095855712890625;
2024-10-12 23:18:26;1728764344.7954888;faceUp;0.165374755859375;-0.321533203125;-0.7826080322265625;
2024-10-12 23:18:26;1728764344.84482;faceUp;0.0966796875;-0.342559814453125;-0.7764129638671875;
2024-10-12 23:18:26;1728764344.89451;faceUp;-0.0392608642578125;-0.384246826171875;-0.8867034912109375;
2024-10-12 23:18:26;1728764344.944594;faceUp;0.05633544921875;-0.4488067626953125;-0.937774658203125;
2024-10-12 23:18:26;1728764344.994659;faceUp;-0.0047454833984375;-0.4854888916015625;-1.017913818359375;
2024-10-12 23:18:26;1728764345.045325;faceUp;0.0004425048828125;-0.45233154296875;-1.0414581298828125;
2024-10-12 23:18:26;1728764345.094434;faceUp;0.0949859619140625;-0.41339111328125;-1.1268463134765625;
2024-10-12 23:18:26;1728764345.14521;faceUp;-0.1996917724609375;-0.24786376953125;-1.1497802734375;
2024-10-12 23:18:26;1728764345.194433;faceUp;-0.084686279296875;-0.2465667724609375;-0.9908294677734375;
2024-10-12 23:18:26;1728764345.2456;faceUp;-0.0668487548828125;-0.30615234375;-0.833709716796875;
2024-10-12 23:18:26;1728764345.294497;faceUp;-0.0131988525390625;-0.3495941162109375;-0.8224945068359375;
2024-10-12 23:18:26;1728764345.344949;faceUp;-0.0015106201171875;-0.363311767578125;-0.8103179931640625;
2024-10-12 23:18:26;1728764345.394445;faceUp;-0.0106353759765625;-0.4052581787109375;-0.7994537353515625;
2024-10-12 23:18:26;1728764345.444408;faceUp;0.022064208984375;-0.4599609375;-0.843963623046875;
2024-10-12 23:18:26;1728764345.49437;faceUp;0.0296630859375;-0.4634552001953125;-0.8719329833984375;
2024-10-12 23:18:26;1728764345.54523;faceUp;0.078155517578125;-0.4925994873046875;-0.91595458984375;
2024-10-12 23:18:26;1728764345.594548;faceUp;0.1540679931640625;-0.490325927734375;-0.962371826171875;
2024-10-12 23:18:26;1728764345.646514;faceUp;0.0566253662109375;-0.44390869140625;-1.0407867431640625;
2024-10-12 23:18:26;1728764345.694181;faceUp;0.1230926513671875;-0.5016632080078125;-1.043304443359375;
2024-10-12 23:18:26;1728764345.743033;faceUp;0.1223907470703125;-0.415557861328125;-1.175537109375;
2024-10-12 23:18:26;1728764345.792999;faceUp;0.0926361083984375;-0.3592071533203125;-0.8432769775390625;
2024-10-12 23:18:26;1728764345.842966;faceUp;0.2387237548828125;-0.4049072265625;-0.7812347412109375;
2024-10-12 23:18:26;1728764345.892391;faceUp;0.1205902099609375;-0.4477691650390625;-0.7672576904296875;
2024-10-12 23:18:26;1728764345.9444618;faceUp;0.1548309326171875;-0.45233154296875;-0.770599365234375;
2024-10-12 23:18:26;1728764345.992385;faceUp;0.0944671630859375;-0.456207275390625;-0.7008056640625;
2024-10-12 23:18:26;1728764346.042455;faceUp;0.115203857421875;-0.5109100341796875;-0.69232177734375;
2024-10-12 23:18:26;1728764346.092286;faceUp;0.0739288330078125;-0.551666259765625;-0.7400970458984375;
2024-10-12 23:18:26;1728764346.1428099;faceUp;0.069976806640625;-0.566986083984375;-0.7817230224609375;
2024-10-12 23:18:26;1728764346.192035;portrait;0.0574188232421875;-0.59332275390625;-0.8989105224609375;
2024-10-12 23:18:26;1728764346.2420049;portrait;-0.030181884765625;-0.5489501953125;-0.96893310546875;
2024-10-12 23:18:26;1728764346.291846;portrait;0.033447265625;-0.5775146484375;-0.956024169921875;
2024-10-12 23:18:26;1728764346.341854;portrait;-0.0142364501953125;-0.543914794921875;-1.063934326171875;
2024-10-12 23:18:26;1728764346.391913;portrait;-0.140838623046875;-0.4224090576171875;-0.934478759765625;
2024-10-12 23:18:26;1728764346.441575;portrait;-0.0298919677734375;-0.4326019287109375;-0.8668670654296875;
2024-10-12 23:18:26;1728764346.491434;faceUp;-0.026458740234375;-0.4717864990234375;-0.829742431640625;
2024-10-12 23:18:26;1728764346.541461;faceUp;0.010284423828125;-0.4691009521484375;-0.777587890625;
2024-10-12 23:18:26;1728764346.59108;faceUp;0.00762939453125;-0.45037841796875;-0.757293701171875;
2024-10-12 23:18:26;1728764346.641161;faceUp;0.0185699462890625;-0.49713134765625;-0.70587158203125;
2024-10-12 23:18:26;1728764346.691144;faceUp;0.0583038330078125;-0.5179290771484375;-0.771881103515625;
2024-10-12 23:18:26;1728764346.740862;faceUp;0.030670166015625;-0.53607177734375;-0.759490966796875;
2024-10-12 23:18:26;1728764346.7941499;portrait;0.124725341796875;-0.567138671875;-0.763946533203125;
2024-10-12 23:18:26;1728764346.841179;portrait;0.0073394775390625;-0.5792999267578125;-0.976898193359375;
