time,seconds_elapsed,z,y,x
1728893610644022800,0.067022705078125,8.291120529174805,4.393360137939453,0.545877993106842
1728893610654002000,0.077001953125,8.762778282165527,3.691859006881714,0.43095630407333374
1728893610663981000,0.08698095703125,8.87291145324707,3.0765492916107178,0.45010992884635925
1728893610673991000,0.096990966796875,9.011775016784668,2.9520506858825684,0.6991068720817566
1728893610683970000,0.106969970703125,9.0859956741333,3.1100680828094482,0.7589619159698486
1728893610693980000,0.11697998046875,9.390059471130371,3.114856481552124,0.828393816947937
1728893610703989800,0.12698974609375,10.702081680297852,2.2816741466522217,0.7015010714530945
1728893610713969000,0.136968994140625,9.856928825378418,4.256890773773193,0.7829039692878723
1728893610723948300,0.1469482421875,9.136273384094238,4.944026470184326,0.5195417404174805
1728893610733927400,0.156927490234375,9.435548782348633,4.4077253341674805,0.44771572947502136
1728893610743937300,0.166937255859375,9.610325813293457,3.7612907886505127,0.6727706789970398
1728893610753947000,0.17694677734375,9.21288776397705,3.1076738834381104,0.7805097699165344
1728893610763926300,0.18692626953125,8.920795440673828,3.00711727142334,1.0678139925003052
1728893610773905400,0.196905517578125,9.294290542602539,2.6024973392486572,1.1803414821624756
1728893610783884800,0.206884765625,9.646238327026367,1.6376339197158813,1.5610195398330688
1728893610793894400,0.216894287109375,8.403648376464844,2.8826189041137695,1.5418659448623657
1728893610803873800,0.226873779296875,8.494627952575684,3.141192674636841,1.4317326545715332
1728893610813883400,0.23688330078125,9.373299598693848,3.5051112174987793,1.1300631761550903
1728893610823862800,0.24686279296875,8.348581314086914,3.976768970489502,1.3455413579940796
1728893610833842000,0.256842041015625,8.791508674621582,4.2329487800598145,0.8906430602073669
1728893610843851800,0.266851806640625,8.678980827331543,4.443638324737549,1.1013327836990356
1728893610853861600,0.276861572265625,8.705317497253418,4.086902141571045,1.0749965906143188
1728893610863871200,0.286871337890625,8.451532363891602,3.9240965843200684,1.216254472732544
1728893610873911600,0.29691162109375,8.391676902770996,3.6296098232269287,1.3862427473068237
1728893610883891000,0.306890869140625,8.315062522888184,3.485957622528076,1.4844050407409668
1728893610893870000,0.3168701171875,8.283937454223633,3.40216064453125,1.4389152526855469
1728893610903849200,0.32684912109375,8.29830265045166,3.2752678394317627,1.41257905960083
1728893610913828600,0.33682861328125,8.070854187011719,3.4811692237854004,1.4844050407409668
1728893610923838200,0.346838134765625,8.051700592041016,3.823540210723877,1.316810965538025
1728893610933817600,0.356817626953125,8.078036308288574,4.350264549255371,1.3215993642807007
1728893610943827500,0.366827392578125,7.872135162353516,4.613626480102539,1.3192051649093628
1728893610953837000,0.376837158203125,7.8529815673828125,4.8722004890441895,1.2042834758758545
1728893610963816400,0.38681640625,7.632715225219727,5.149928092956543,1.259350061416626
1728893610973826000,0.396825927734375,7.285555839538574,5.540182590484619,1.2737152576446533
1728893610983805400,0.406805419921875,6.912060260772705,5.870582580566406,1.482010841369629
1728893610993784600,0.41678466796875,7.2568254470825195,5.872976779937744,0.9457096457481384
1728893611003794400,0.42679443359375,7.745242595672607,5.96874475479126,0.8140285611152649
1728893611013804000,0.436803955078125,8.26478385925293,6.035782337188721,0.6320692300796509
1728893611023814000,0.44681396484375,8.786720275878906,6.236895561218262,0.5626373887062073
1728893611033793300,0.456793212890625,8.774748802185059,6.119579315185547,0.4357447028160095
1728893611043803000,0.466802978515625,8.554482460021973,5.829881191253662,0.3016694188117981
1728893611053812700,0.476812744140625,8.252813339233398,5.65031623840332,0.23942017555236816
1728893611063791900,0.4867919921875,8.075642585754395,5.655104637145996,0.2513911724090576
1728893611073771300,0.496771240234375,8.101978302001953,5.5545477867126465,0.4118026793003082
1728893611083750400,0.50675048828125,8.44434928894043,5.236119270324707,0.4692635238170624
1728893611093729800,0.516729736328125,8.96389102935791,4.592078685760498,0.6392518281936646
1728893611103709000,0.526708984375,8.69334602355957,4.280832767486572,0.8619126081466675
1728893611113688000,0.53668798828125,8.700529098510742,4.108449935913086,0.8020575642585754
1728893611123667500,0.54666748046875,8.518569946289062,3.909731388092041,0.8379706144332886
1728893611133677300,0.55667724609375,8.418013572692871,3.931279182434082,0.7829039692878723
1728893611143656400,0.566656494140625,8.38449478149414,3.912125587463379,0.6320692300796509
1728893611153635600,0.576635498046875,8.789113998413086,4.170699596405029,0.727837324142456
1728893611163615000,0.586614990234375,8.674192428588867,4.383783340454102,1.0534487962722778
1728893611173594000,0.596593994140625,8.968679428100586,4.156333923339844,1.0247182846069336
1728893611183573500,0.606573486328125,9.239224433898926,3.821146011352539,1.0319008827209473
1728893611193552600,0.616552734375,9.124302864074707,3.2752678394317627,1.0462661981582642
1728893611203532000,0.626531982421875,9.08838939666748,2.8203697204589844,0.9361328482627869
1728893611213511200,0.63651123046875,9.124302864074707,3.0837318897247314,1.048660397529602
1728893611223490600,0.646490478515625,9.193734169006348,3.4117374420166016,0.8930372595787048
1728893611233500200,0.656500244140625,9.294290542602539,3.6104562282562256,0.6416460275650024
1728893611243448800,0.66644873046875,9.588777542114258,3.7708675861358643,0.524330198764801
1728893611253458700,0.676458740234375,9.682151794433594,3.8283286094665527,0.569819986820221
1728893611263437800,0.686437744140625,9.57441234588623,3.600879430770874,0.49320554733276367
1728893611273417200,0.696417236328125,9.406818389892578,3.3662476539611816,0.4429273009300232
1728893611283396400,0.706396240234375,9.490615844726562,3.3901896476745605,0.3232172429561615
1728893611293375700,0.716375732421875,9.856928825378418,3.5673606395721436,0.5339069962501526
1728893611303355000,0.72635498046875,9.876082420349121,3.5051112174987793,0.4812345504760742
1728893611313334300,0.736334228515625,9.825803756713867,3.514688014984131,0.31124621629714966
1728893611323344000,0.74634375,10.089165687561035,3.6798880100250244,0.14844051003456116
1728893611333353700,0.756353759765625,10.235212326049805,3.711012601852417,0.06224924325942993
1728893611343363600,0.766363525390625,10.093954086303711,3.641580820083618,-0.047884032130241394
1728893611353373200,0.776373291015625,9.816226959228516,3.7708675861358643,-0.17238251864910126
1728893611363383000,0.786383056640625,9.703699111938477,3.8594532012939453,-0.23702596127986908
1728893611373423400,0.79642333984375,9.95748519897461,3.756502389907837,-0.1867477297782898
1728893611383433000,0.806432861328125,9.725247383117676,3.890577793121338,-0.19632454216480255
1728893611393412400,0.816412353515625,9.454702377319336,3.9839515686035156,-0.19153612852096558
1728893611403361000,0.826361083984375,9.588777542114258,3.928884983062744,-0.0933738648891449
1728893611413371000,0.836370849609375,9.641449928283691,3.9169139862060547,-0.15562310814857483
1728893611423350000,0.84635009765625,9.399636268615723,3.971980571746826,-0.19393034279346466
1728893611433329400,0.856329345703125,9.287108421325684,3.974374771118164,-0.15562310814857483
1728893611443308500,0.86630859375,9.232041358947754,3.847482204437256,-0.19871874153614044
1728893611453287700,0.87628759765625,9.157821655273438,3.8738183975219727,-0.21787235140800476
1728893611463267000,0.88626708984375,9.097966194152832,3.93367338180542,-0.28969839215278625
1728893611473246200,0.89624609375,9.033323287963867,3.9671921730041504,-0.4118026793003082
1728893611483256000,0.906256103515625,9.141061782836914,3.9839515686035156,-0.3711012601852417
1728893611493235200,0.916235107421875,9.160215377807617,3.780444383621216,-0.31603461503982544
1728893611503245000,0.9262451171875,9.074024200439453,3.7014358043670654,-0.31842881441116333
1728893611513285400,0.936285400390625,8.889671325683594,3.758896589279175,-0.23702596127986908
1728893611523264500,0.946264404296875,8.904036521911621,3.646369218826294,-0.2322375625371933
1728893611533244000,0.956243896484375,9.059659004211426,3.7277719974517822,-0.28969839215278625
1728893611543223000,0.96622314453125,8.949525833129883,3.689464807510376,-0.28969839215278625
1728893611553202400,0.976202392578125,9.050082206726074,3.754108190536499,-0.21308395266532898
1728893611563181600,0.986181640625,9.095572471618652,3.974374771118164,-0.3447650372982025
1728893611573161000,0.996160888671875,9.14585018157959,3.885789394378662,-0.21547815203666687
1728893611583140000,1.00614013671875,9.023746490478516,3.883395195007324,-0.1867477297782898
1728893611593119200,1.016119140625,8.980650901794434,3.9264907836914062,-0.20111294090747833
1728893611603098600,1.0260986328125,8.774748802185059,3.9600095748901367,-0.20111294090747833
1728893611613077800,1.036077880859375,9.3828763961792,4.304774761199951,-0.3280056416988373
1728893611623087600,1.046087646484375,9.32302188873291,4.218583583831787,-0.3974374830722809
1728893611633066800,1.056066650390625,9.174580574035645,3.955221176147461,-0.42377370595932007
1728893611643076600,1.06607666015625,9.138668060302734,3.9001545906066895,-0.4596867263317108
1728893611653117000,1.076116943359375,9.083600997924805,3.8786067962646484,-0.43095630407333374
1728893611663096000,1.086095947265625,8.920795440673828,3.8546648025512695,-0.35673606395721436
1728893611673075500,1.096075439453125,9.095572471618652,3.9408559799194336,-0.2561795711517334
1728893611683054600,1.1060546875,9.306262016296387,3.9887399673461914,-0.2585737705230713
1728893611693034000,1.116033935546875,9.220070838928223,3.9456443786621094,-0.2322375625371933
1728893611703013000,1.12601318359375,9.153033256530762,3.97916316986084,-0.2777273952960968
1728893611712992500,1.135992431640625,9.030928611755371,3.952826976776123,-0.31124621629714966
1728893611722971600,1.1459716796875,9.045293807983398,3.8810009956359863,-0.2801215946674347
1728893611732950800,1.15595068359375,9.028534889221191,3.799597978591919,-0.28730419278144836
1728893611742930200,1.16593017578125,8.980650901794434,3.7229835987091064,-0.2801215946674347
1728893611752909300,1.175909423828125,8.908824920654297,3.7445313930511475,-0.2777273952960968
1728893611762888700,1.185888671875,8.956708908081055,3.7828385829925537,-0.33758243918418884
1728893611772867800,1.195867919921875,9.078812599182129,3.7900211811065674,-0.35434186458587646
1728893611782847200,1.20584716796875,9.14345645904541,3.799597978591919,-0.33039984107017517
1728893611792826400,1.215826416015625,9.184157371520996,3.8498764038085938,-0.3974374830722809
1728893611802836200,1.225836181640625,8.884882926940918,3.936067581176758,-0.5626373887062073
1728893611812815400,1.2358154296875,9.555258750915527,4.2329487800598145,-0.5626373887062073
1728893611822825200,1.2458251953125,9.368511199951172,3.998316764831543,-0.586579442024231
1728893611832834800,1.255834716796875,9.124302864074707,3.8067808151245117,-0.6057330369949341
1728893611842844700,1.2658447265625,9.174580574035645,3.9169139862060547,-0.5626373887062073
1728893611852885000,1.275885009765625,9.296685218811035,3.8546648025512695,-0.4884171485900879
1728893611862833700,1.285833740234375,9.497797966003418,3.8762125968933105,-0.24181437492370605
1728893611872874000,1.2958740234375,9.39245319366455,3.737348794937134,-0.3519476354122162
1728893611882822700,1.30582275390625,9.583989143371582,3.818751811981201,-0.4572925269603729
1728893611892863000,1.315863037109375,9.617507934570312,3.9432501792907715,-0.4165911078453064
1728893611902842000,1.325842041015625,9.461885452270508,3.950432777404785,-0.4357447028160095
1728893611912882400,1.33588232421875,9.351752281188965,3.9815573692321777,-0.4572925269603729
1728893611922861800,1.34586181640625,9.23443603515625,4.015076160430908,-0.40462008118629456
1728893611932841000,1.355841064453125,9.311050415039062,3.8594532012939453,-0.33758243918418884
1728893611942789600,1.36578955078125,9.306262016296387,3.7852327823638916,-0.2968810200691223
1728893611952799500,1.375799560546875,9.232041358947754,3.77565598487854,-0.20350714027881622
1728893611962779000,1.38577880859375,9.107542991638184,3.7612907886505127,-0.09576806426048279
1728893611972788500,1.39578857421875,9.071630477905273,3.823540210723877,-0.13407529890537262
1728893611982798300,1.40579833984375,9.05247688293457,3.8762125968933105,-0.16519992053508759
1728893611992808000,1.415807861328125,9.08838939666748,3.864241600036621,-0.17717093229293823
1728893612002787300,1.425787353515625,9.05247688293457,3.8570590019226074,-0.1867477297782898
1728893612012827600,1.43582763671875,9.07641887664795,3.8379054069519043,-0.26096799969673157
1728893612022806800,1.445806884765625,9.150638580322266,3.840299606323242,-0.2322375625371933
1728893612032816600,1.455816650390625,9.191340446472168,3.7924153804779053,-0.15083470940589905
1728893612042826500,1.465826416015625,9.026140213012695,3.7229835987091064,-0.05267243832349777
1728893612052836000,1.475836181640625,8.971074104309082,3.665522813796997,-0.028730420395731926
1728893612062846000,1.485845947265625,9.047688484191895,3.754108190536499,-0.07661445438861847
1728893612072855600,1.49585546875,9.0859956741333,3.8786067962646484,-0.15562310814857483
1728893612082865400,1.505865478515625,9.253589630126953,3.9408559799194336,-0.19153612852096558
1728893612092875300,1.515875244140625,9.404424667358398,3.9049429893493652,-0.14844051003456116
1728893612102824000,1.525823974609375,9.368511199951172,3.9624037742614746,-0.0933738648891449
1728893612112864300,1.5358642578125,9.296685218811035,4.0749311447143555,-0.021547814831137657
1728893612122873900,1.545873779296875,9.23443603515625,4.07014274597168,0.002394201699644327
1728893612132853200,1.555853271484375,9.265560150146484,4.031835556030273,0.090979665517807
1728893612142863000,1.565863037109375,9.220070838928223,4.0749311447143555,0.181959331035614
1728893612152872700,1.575872802734375,9.133879661560059,4.170699596405029,0.181959331035614
1728893612162852000,1.58585205078125,9.138668060302734,4.216189384460449,0.3471592366695404
1728893612172831200,1.595831298828125,9.162610054016113,3.998316764831543,0.4429273009300232
1728893612182810600,1.605810546875,9.150638580322266,3.9264907836914062,0.4572925269603729
1728893612192789800,1.615789794921875,9.131484985351562,3.9671921730041504,0.33997663855552673
1728893612202769000,1.625768798828125,9.064447402954102,4.055777549743652,0.20111294090747833
1728893612212748300,1.635748291015625,9.030928611755371,4.02465295791626,0.10534487664699554
1728893612222727400,1.6457275390625,8.98543930053711,3.9169139862060547,0.023942016065120697
1728893612232706800,1.655706787109375,9.059659004211426,3.864241600036621,-0.047884032130241394
1728893612242686000,1.66568603515625,9.074024200439453,3.818751811981201,-0.16519992053508759
1728893612252665300,1.675665283203125,9.157821655273438,3.732560396194458,-0.23942017555236816
1728893612262644500,1.68564453125,9.263166427612305,3.687070608139038,-0.2753331959247589
1728893612272562700,1.695562744140625,9.279925346374512,3.687070608139038,-0.2992752194404602
1728893612282481000,1.70548095703125,9.196128845214844,3.713406801223755,-0.3064578175544739
1728893612292521200,1.715521240234375,9.095572471618652,3.713406801223755,-0.33758243918418884
1728893612302531000,1.725531005859375,8.983044624328613,3.711012601852417,-0.395043283700943
1728893612312479700,1.735479736328125,8.925583839416504,3.7205893993377686,-0.37828385829925537
1728893612322398000,1.74539794921875,8.863334655761719,3.6774938106536865,-0.3687070608139038
1728893612332407600,1.755407470703125,8.793902397155762,3.6511576175689697,-0.38067805767059326
1728893612342387000,1.765386962890625,8.858546257019043,3.5865142345428467,-0.42377370595932007
1728893612352396800,1.775396728515625,9.08838939666748,3.5482068061828613,-0.5602431893348694
1728893612362406400,1.785406494140625,9.136273384094238,3.5458126068115234,-0.6320692300796509
1728893612372446700,1.79544677734375,9.124302864074707,3.4955344200134277,-0.6320692300796509
1728893612382395400,1.8053955078125,9.162610054016113,3.3734302520751953,-0.646434485912323
1728893612392405200,1.8154052734375,9.05247688293457,3.3255462646484375,-0.7637503147125244
1728893612402384400,1.82538427734375,8.947132110595703,3.4117374420166016,-0.7996633648872375
1728893612412363800,1.83536376953125,8.848969459533691,3.488351821899414,-0.6607996821403503
1728893612422343000,1.845343017578125,8.667010307312012,3.6535518169403076,-0.26336219906806946
1728893612432322300,1.855322265625,9.030928611755371,3.5003228187561035,-0.2777273952960968
1728893612442301400,1.865301513671875,9.493009567260742,3.2537200450897217,-0.7661445140838623
1728893612452280800,1.87528076171875,9.399636268615723,3.3423056602478027,-0.849941611289978
1728893612462260000,1.885260009765625,8.990227699279785,3.555389642715454,-0.5267243981361389
1728893612472239000,1.895239013671875,8.722076416015625,3.713406801223755,-0.17717093229293823
1728893612482279400,1.905279541015625,8.851364135742188,3.751713991165161,-0.19153612852096558
1728893612492258800,1.9152587890625,8.956708908081055,3.8355112075805664,-0.17238251864910126
1728893612502268400,1.925268310546875,8.865729331970215,3.9217023849487305,-0.21787235140800476
1728893612512308700,1.935308837890625,8.722076416015625,4.1395745277404785,0.07422025501728058
1728893612522288000,1.9452880859375,8.762778282165527,4.3861775398254395,0.33997663855552673
1728893612532267300,1.955267333984375,8.813055992126465,4.685452938079834,0.4908113479614258
1728893612542246700,1.96524658203125,8.798690795898438,4.900930881500244,0.49799394607543945
1728893612552225800,1.975225830078125,8.757989883422852,5.035006046295166,0.5985504388809204
1728893612562205000,1.985204833984375,8.731653213500977,4.9799394607543945,0.7206547260284424
1728893612572184300,1.995184326171875,8.655038833618164,4.747702121734619,0.629675030708313
1728893612582194000,2.00519384765625,8.757989883422852,4.441244125366211,0.2753331959247589
1728893612592173300,2.01517333984375,9.014169692993164,4.165910720825195,-0.15083470940589905
1728893612602152400,2.02515234375,9.402029991149902,4.017470359802246,-0.47884035110473633
1728893612612131800,2.0351318359375,9.734824180603027,4.010287761688232,-0.6560112833976746
1728893612622111000,2.045111083984375,9.835380554199219,3.928884983062744,-0.8786720037460327
1728893612632120800,2.055120849609375,8.951920509338379,3.6942532062530518,-0.9983820915222168
1728893612642130700,2.065130615234375,8.860940933227539,3.8714241981506348,-0.6799532771110535
1728893612652109800,2.07510986328125,8.863334655761719,4.02465295791626,-0.31124621629714966
1728893612662089000,2.0850888671875,8.71728801727295,3.8762125968933105,-0.31842881441116333
1728893612672129300,2.09512939453125,8.418013572692871,3.706224203109741,-0.4644751250743866
1728893612682108700,2.105108642578125,8.250418663024902,3.6535518169403076,-0.6177040338516235
1728893612692087800,2.115087890625,8.669404029846191,3.4979286193847656,-0.6272808313369751
1728893612702067200,2.125067138671875,9.296685218811035,3.1866824626922607,-0.5267243981361389
1728893612712138000,2.135137939453125,9.35893440246582,3.335123062133789,-0.2753331959247589
1728893612722117000,2.1451171875,8.87051773071289,3.8594532012939453,0.16519992053508759
1728893612732096500,2.155096435546875,8.556877136230469,3.907337188720703,0.4381389021873474
1728893612742075600,2.16507568359375,8.516175270080566,3.5673606395721436,0.47165772318840027
1728893612752085500,2.17508544921875,8.391676902770996,3.2154128551483154,0.11013327538967133
1728893612762064600,2.185064697265625,8.401253700256348,3.0142998695373535,0.1364694982767105
1728893612772043800,2.195043701171875,8.576030731201172,3.00711727142334,0.4429273009300232
1728893612782023200,2.205023193359375,8.518569946289062,3.023876667022705,0.7206547260284424
1728893612792033000,2.215032958984375,8.583212852478027,2.9089550971984863,0.9792284965515137
1728893612802012200,2.22501220703125,8.094796180725098,2.6815059185028076,1.2449848651885986
1728893612811991300,2.2349912109375,7.632715225219727,2.2840683460235596,1.7621324062347412
1728893612821970700,2.244970703125,7.280767440795898,2.343923568725586,2.4851813316345215
1728893612831949800,2.25494970703125,6.210559368133545,2.8634653091430664,3.0382418632507324
1728893612841929200,2.26492919921875,5.4013190269470215,3.485957622528076,3.4955344200134277
1728893612851908400,2.274908447265625,5.070919036865234,3.9839515686035156,3.6296098232269287
1728893612861887700,2.2848876953125,4.824316501617432,4.2090067863464355,3.691859006881714
1728893612871867000,2.294866943359375,4.867412090301514,3.9671921730041504,3.689464807510376
1728893612881846300,2.30484619140625,5.315127849578857,3.9671921730041504,3.8355112075805664
1728893612891825400,2.314825439453125,5.719748020172119,4.477157115936279,4.206612586975098
1728893612901804500,2.324804443359375,6.009446144104004,4.93923807144165,4.390965938568115
1728893612911814400,2.334814453125,6.50025749206543,5.142745018005371,4.352658748626709
1728893612921793500,2.34479345703125,6.952761650085449,5.231330871582031,4.285621166229248
1728893612931803400,2.354803466796875,7.017405033111572,5.233725070953369,4.223371982574463
1728893612941782800,2.36478271484375,6.818686485290527,5.463568210601807,4.288015365600586
1728893612951792400,2.37479248046875,6.335057735443115,5.899312973022461,4.551377296447754
1728893612961771800,2.384771728515625,5.74129581451416,5.868188381195068,4.898536682128906
1728893612971751000,2.3947509765625,5.360617637634277,6.8593878746032715,6.268020153045654
1728893612981730300,2.404730224609375,5.236119270324707,8.020575523376465,7.812280178070068
1728893612991709400,2.41470947265625,5.22175407409668,8.286332130432129,8.157045364379883
1728893613001688600,2.4246884765625,5.896918773651123,8.803479194641113,7.893682956695557
1728893613011698400,2.434698486328125,6.8593878746032715,8.62630844116211,6.955155849456787
1728893613021677600,2.444677490234375,7.60637903213501,8.248024940490723,6.265625953674316
1728893613031687400,2.4546875,7.893682956695557,8.061277389526367,5.880159378051758
1728893613041666800,2.464666748046875,8.11634349822998,7.661445617675781,5.353435039520264
1728893613051646000,2.47464599609375,7.757213592529297,7.0317702293396,5.080495834350586
1728893613061625000,2.484625,7.307103633880615,6.540958881378174,4.99669885635376
1728893613071604500,2.4946044921875,7.103596210479736,6.253654956817627,4.606443881988525
1728893613081583600,2.50458349609375,6.605602264404297,6.244078159332275,4.041412353515625
1728893613091593500,2.514593505859375,5.815515995025635,6.370970726013184,3.861847400665283
1728893613101572600,2.524572509765625,5.6455278396606445,6.244078159332275,3.339911460876465
1728893613111582500,2.53458251953125,5.614402770996094,6.2416839599609375,3.0095114707946777
1728893613121561600,2.5445615234375,5.365406036376953,6.299144744873047,2.9017724990844727
1728893613131541000,2.554541015625,5.612008571624756,6.806715488433838,2.849100112915039
1728893613141520100,2.56452001953125,5.937620162963867,7.3693528175354,2.82515811920166
1728893613151499500,2.57449951171875,6.36378812789917,7.438784599304199,2.293645143508911
1728893613161478700,2.584478759765625,6.114790916442871,7.467514991760254,2.3247697353363037
1728893613171458000,2.5944580078125,6.234501361846924,7.307103633880615,2.070984363555908
1728893613181437200,2.604437255859375,5.827486991882324,7.443572998046875,2.389413356781006
1728893613191416600,2.61441650390625,5.609614372253418,7.94635534286499,2.7293899059295654
1728893613201395700,2.624395751953125,5.959167957305908,8.56884765625,2.7246015071868896
1728893613211374800,2.634374755859375,5.849034786224365,9.141061782836914,2.695871114730835
1728893613221354200,2.644354248046875,5.837063789367676,9.50498104095459,2.518700122833252
1728893613231333400,2.65433349609375,5.583278179168701,9.521739959716797,2.741360902786255
1728893613241312800,2.664312744140625,5.202600479125977,9.526528358459473,2.978386878967285
1728893613251292000,2.6742919921875,4.802768707275391,9.684545516967773,3.181894063949585
1728893613261271300,2.684271240234375,4.754884719848633,9.660603523254395,3.0597896575927734
1728893613271250400,2.69425048828125,4.228160381317139,9.576807022094727,2.6886885166168213
1728893613281229600,2.7042294921875,3.627215623855591,9.588777542114258,2.298433542251587
1728893613291209000,2.714208984375,1.4915876388549805,12.641385078430176,0.17477671802043915
1728893613301188000,2.72418798828125,1.766920804977417,12.969390869140625,-0.47405192255973816
1728893613311198000,2.734197998046875,2.252943754196167,10.936713218688965,0.40222588181495667
1728893613321207800,2.744207763671875,3.531447410583496,9.193734169006348,1.9129672050476074
1728893613331217400,2.754217529296875,3.9001545906066895,7.424419403076172,3.308786630630493
1728893613341196800,2.76419677734375,3.9025487899780273,6.011840343475342,4.19224739074707
1728893613351206400,2.774206298828125,4.422090530395508,4.55616569519043,4.084507942199707
1728893613361185800,2.784185791015625,4.704606533050537,3.9839515686035156,4.163516521453857
1728893613371165000,2.7941650390625,5.104437828063965,4.331110954284668,3.9624037742614746
1728893613381144300,2.804144287109375,5.324704647064209,5.135562419891357,3.6128504276275635
1728893613391123500,2.81412353515625,4.8602294921875,4.046200752258301,3.1076738834381104
1728893613401102800,2.824102783203125,2.9017724990844727,5.04218864440918,3.603273630142212
1728893613411082000,2.83408203125,3.512293815612793,5.7341132164001465,4.091690540313721
1728893613421061000,2.84406103515625,4.034229755401611,6.066906929016113,4.3861775398254395
1728893613431071000,2.854071044921875,3.648763418197632,5.504269599914551,4.422090530395508
1728893613441050400,2.86405029296875,3.24414324760437,4.800374507904053,4.170699596405029
1728893613451060000,2.87406005859375,2.8850131034851074,4.508281707763672,3.9887399673461914
1728893613461039400,2.884039306640625,3.3925838470458984,4.716577529907227,4.402936935424805
1728893613471049000,2.894049072265625,4.623203277587891,6.423643112182617,5.018246650695801
1728893613481058800,2.904058837890625,-0.933738648891449,9.959878921508789,3.6583402156829834
1728893613491068700,2.914068603515625,-3.9217023849487305,11.824962615966797,2.3367409706115723
1728893613501047800,2.9240478515625,-0.6488286852836609,10.517727851867676,4.3191399574279785
1728893613511057700,2.9340576171875,5.918466567993164,12.351686477661133,2.513911724090576
1728893613521067300,2.9440673828125,4.8482584953308105,16.062698364257812,-2.7988216876983643
1728893613531077000,2.9540771484375,0.7398083209991455,16.484079360961914,-1.9919757843017578
1728893613541056300,2.96405615234375,-0.7876923680305481,14.690821647644043,0.7876923680305481
1728893613551035600,2.97403564453125,-0.19153612852096558,13.615824699401855,2.47560453414917
1728893613561014800,2.984014892578125,1.1109095811843872,11.97100830078125,2.7030537128448486
1728893613571024600,2.994024658203125,1.9512743949890137,10.433931350708008,3.0813376903533936
1728893613581003800,3.004003662109375,1.1971008777618408,9.41400146484375,4.268861770629883
1728893613591013600,3.014013671875,1.4676456451416016,8.856152534484863,3.9815573692321777
1728893613601023500,3.0240234375,2.078166961669922,8.954314231872559,4.046200752258301
1728893613611002600,3.034002685546875,1.9369091987609863,9.069235801696777,3.7158010005950928
1728893613621012500,3.044012451171875,1.5442601442337036,8.999804496765137,3.4117374420166016
1728893613631022000,3.05402197265625,1.0055646896362305,8.576030731201172,3.1268274784088135
1728893613641001500,3.06400146484375,1.2761094570159912,8.24084186553955,3.0190882682800293
1728893613651011000,3.074010986328125,1.5131354331970215,8.106766700744629,3.0406360626220703
1728893613660990500,3.083990478515625,1.5538369417190552,8.597578048706055,3.1699230670928955
1728893613671000300,3.094000244140625,1.216254472732544,8.947132110595703,3.3016040325164795
1728893613680979500,3.1039794921875,0.9864110946655273,9.059659004211426,3.4165258407592773
1728893613690958600,3.11395849609375,0.8930372595787048,9.23682975769043,3.665522813796997
1728893613700938000,3.12393798828125,1.5131354331970215,5.947196960449219,3.1244332790374756
1728893613710917000,3.133917236328125,3.2800562381744385,6.406883716583252,3.268085241317749
1728893613720896500,3.143896484375,3.19865345954895,5.834669589996338,2.827552318572998
1728893613730906000,3.153906005859375,3.4548330307006836,5.92325496673584,2.559401512145996
1728893613740946400,3.163946533203125,4.311957359313965,6.461950302124023,2.2385785579681396
1728893613750956300,3.173956298828125,4.750096321105957,6.976703643798828,1.8267759084701538
1728893613760935400,3.183935302734375,1.0414776802062988,8.75080680847168,1.1492167711257935
1728893613770914800,3.193914794921875,-1.6160861253738403,10.503362655639648,0.8619126081466675
1728893613780894000,3.20389404296875,-2.561795711517334,11.508927345275879,1.0199298858642578
1728893613790873300,3.213873291015625,-1.6208745241165161,10.433931350708008,0.7230489253997803
1728893613800852500,3.2238525390625,0.4884171485900879,8.324639320373535,0.6847416758537292
1728893613810831600,3.23383154296875,1.6496049165725708,6.959944248199463,1.0199298858642578
1728893613820811000,3.24381103515625,1.2976573705673218,7.103596210479736,1.5322890281677246
1728893613830790100,3.2537900390625,-0.7589619159698486,7.295132637023926,1.7070658206939697
1728893613840769500,3.26376953125,-1.1994950771331787,9.890447616577148,2.3918075561523438
1728893613850748700,3.273748779296875,-0.8307880163192749,10.093954086303711,1.0223240852355957
1728893613860728000,3.28372802734375,-0.17238251864910126,12.890381813049316,1.6112977266311646
1728893613870737700,3.293737548828125,1.8315643072128296,21.665130615234375,4.481945514678955
1728893613880717000,3.303717041015625,4.02465295791626,38.40778350830078,16.929399490356445
1728893613890696200,3.3136962890625,-1.3527239561080933,23.836671829223633,14.85362720489502
1728893613900675600,3.323675537109375,1.1276689767837524,12.988544464111328,9.157821655273438
1728893613910654700,3.33365478515625,4.307168960571289,5.92325496673584,5.559336185455322
1728893613920634000,3.343634033203125,3.3255462646484375,3.1004912853240967,3.8786067962646484
1728893613930643700,3.353643798828125,3.4117374420166016,2.7054479122161865,3.0597896575927734
1728893613940653600,3.363653564453125,3.974374771118164,3.00711727142334,5.52821159362793
1728893613950663200,3.3736630859375,2.2002713680267334,7.826645374298096,8.549694061279297
1728893613960642600,3.383642578125,-0.014365210197865963,9.423578262329102,8.829815864562988
1728893613970652400,3.39365234375,-0.7134721279144287,8.130708694458008,7.934384346008301
1728893613980631600,3.403631591796875,-0.7493851184844971,6.4595561027526855,6.624756336212158
1728893613990641400,3.413641357421875,-0.7781155705451965,5.178658485412598,5.971138954162598
1728893614000651000,3.423651123046875,-0.5937620401382446,4.19224739074707,6.22731876373291
1728893614010630400,3.43363037109375,0.2825157940387726,3.758896589279175,7.038952827453613
1728893614020609500,3.443609619140625,1.9776105880737305,3.1028854846954346,7.9846625328063965
1728893614030619400,3.453619384765625,3.3423056602478027,3.406949043273926,8.26239013671875
1728893614040629000,3.46362890625,4.900930881500244,4.90571928024292,7.230489253997803
1728893614050638800,3.473638916015625,5.264849662780762,6.054935932159424,6.514622688293457
1728893614060648700,3.483648681640625,4.5154643058776855,7.084442615509033,6.5050458908081055
1728893614070658300,3.493658203125,3.3255462646484375,7.3238630294799805,6.342240333557129
1728893614080637700,3.5036376953125,2.5713725090026855,7.252037048339844,6.361393928527832
1728893614090647300,3.513647216796875,2.252943754196167,7.189787864685059,6.414066314697266
1728893614100626700,3.523626708984375,2.293645143508911,7.141903877258301,6.289567947387695
1728893614110636500,3.533636474609375,2.434903144836426,7.146692276000977,6.246472358703613
1728893614120646100,3.543646240234375,2.537853717803955,7.108384609222412,6.291962146759033
1728893614130656000,3.553656005859375,2.564189910888672,7.072471618652344,6.399701118469238
1728893614140635100,3.56363525390625,2.38462495803833,6.964732646942139,6.5050458908081055
1728893614150645000,3.57364501953125,2.123656988143921,6.852205276489258,6.560112476348877
1728893614160654800,3.58365478515625,1.968033790588379,6.7923502922058105,6.631938934326172
1728893614170634000,3.593634033203125,1.821987509727478,6.871358871459961,6.66785192489624
1728893614180613000,3.603613037109375,1.680729627609253,6.955155849456787,6.682217121124268
1728893614190623000,3.613623046875,1.5610195398330688,6.97430944442749,6.71334171295166
1728893614200602400,3.623602294921875,1.460463047027588,6.988674640655518,6.698976516723633
1728893614210612000,3.633612060546875,1.400607943534851,6.988674640655518,6.718130111694336
1728893614220591400,3.64359130859375,1.3407529592514038,7.0126166343688965,6.789956092834473
1728893614230601000,3.65360107421875,1.3551181554794312,7.01979923248291,6.818686485290527
1728893614240610800,3.66361083984375,1.436521053314209,6.9910688400268555,6.801927089691162
1728893614250620700,3.67362060546875,1.6304513216018677,6.9910688400268555,6.787561893463135
1728893614260569300,3.6835693359375,1.8291701078414917,6.92881965637207,6.703764915466309
1728893614270579000,3.693578857421875,2.1763293743133545,7.041347026824951,6.732495307922363
1728893614280558300,3.703558349609375,2.3558945655822754,7.0557122230529785,6.806715488433838
1728893614290568200,3.713568115234375,2.542642116546631,7.048529624938965,6.739677906036377
1728893614300547300,3.72354736328125,2.5498247146606445,7.16584587097168,6.687005519866943
1728893614310557200,3.73355712890625,2.5546131134033203,7.168240070343018,6.694188117980957
1728893614320566800,3.74356689453125,2.6216509342193604,7.223306655883789,6.730101108551025
1728893614330576600,3.75357666015625,2.6216509342193604,7.280767440795898,6.8043212890625
1728893614340555800,3.7635556640625,2.3774423599243164,7.292738437652588,6.888118267059326
1728893614350565600,3.773565673828125,2.1332337856292725,7.194576263427734,6.976703643798828
1728893614360544800,3.783544677734375,2.078166961669922,7.010222434997559,7.070077419281006
1728893614370554600,3.7935546875,2.2194249629974365,6.885724067687988,7.12035608291626
1728893614380534000,3.803533935546875,2.3989901542663574,6.682217121124268,7.151480674743652
1728893614390543600,3.813543701171875,2.473210334777832,6.517016887664795,7.0988078117370605
1728893614400523000,3.82352294921875,2.4827871322631836,6.593631267547607,7.072471618652344
1728893614410502100,3.833502197265625,2.449268341064453,6.648698329925537,7.017405033111572
1728893614420481300,3.843481201171875,2.410961151123047,6.761225700378418,7.01979923248291
1728893614430460700,3.853460693359375,2.363077163696289,6.787561893463135,7.000645637512207
1728893614440439800,3.863439697265625,2.389413356781006,6.698976516723633,6.931213855743408
1728893614450419200,3.873419189453125,2.406172752380371,6.856993675231934,6.806715488433838
1728893614460398300,3.8833984375,2.4133553504943848,6.993463039398193,6.6630635261535645
1728893614470408200,3.893408203125,2.341529369354248,6.809109687805176,6.629544734954834
1728893614480387300,3.90338720703125,2.209848165512085,6.852205276489258,6.543353080749512
1728893614490366700,3.91336669921875,2.2170307636260986,6.797138690948486,6.368576526641846
1728893614500345900,3.923345947265625,2.296039342880249,6.627150535583496,6.22731876373291
1728893614510325200,3.9333251953125,2.255337953567505,6.7277069091796875,6.186617374420166
1728893614520304400,3.943304443359375,2.427720546722412,6.45476770401001,6.081272125244141
1728893614530283500,3.953283447265625,2.5330653190612793,6.476315498352051,6.217741966247559
1728893614540263000,3.963262939453125,2.5282769203186035,6.536170482635498,6.265625953674316
1728893614550242000,3.973241943359375,2.5234885215759277,6.5912370681762695,6.294356346130371
1728893614560221400,3.983221435546875,2.38462495803833,6.519411087036133,6.411672115325928
1728893614570231000,3.99323095703125,2.1523873805999756,6.45476770401001,6.445190906524658
1728893614580241000,4.003240966796875,2.0590133666992188,6.45476770401001,6.531382083892822
1728893614590250800,4.013250732421875,2.1045033931732178,6.5050458908081055,6.703764915466309
1728893614600260400,4.02326025390625,2.1595699787139893,6.6127848625183105,6.737283706665039
1728893614610270200,4.033270263671875,2.123656988143921,6.818686485290527,6.897695064544678
1728893614620280000,4.043280029296875,2.1475989818573,6.897695064544678,7.029376029968262
1728893614630289700,4.05328955078125,2.2625205516815186,6.916848659515381,7.026981830596924
1728893614640238600,4.063238525390625,2.3511061668395996,6.957550048828125,7.0557122230529785
1728893614650248200,4.073248291015625,2.432508945465088,6.97430944442749,6.89530086517334
1728893614660258000,4.083258056640625,2.3487119674682617,6.943184852600098,6.742072105407715
1728893614670268000,4.093267822265625,2.276885747909546,6.835445880889893,6.763619899749756
1728893614680277500,4.103277587890625,2.296039342880249,6.777985095977783,6.75883150100708
1728893614690287400,4.113287353515625,2.22660756111145,6.646304130554199,6.655880928039551
1728893614700266500,4.1232666015625,2.049436569213867,6.5481414794921875,6.653486728668213
1728893614710276400,4.1332763671875,1.886630892753601,6.497863292694092,6.62236213684082
1728893614720286200,4.1432861328125,1.824381709098816,6.368576526641846,6.658275127410889
1728893614730295800,4.1532958984375,1.922544002532959,6.270414352416992,6.698976516723633
1728893614740275200,4.163275146484375,1.9704279899597168,6.342240333557129,6.775590896606445
1728893614750284800,4.173284912109375,2.0877439975738525,6.457161903381348,6.821080684661865
1728893614760264200,4.18326416015625,2.1547815799713135,6.600813865661621,6.794744491577148
1728893614770243300,4.193243408203125,2.233790159225464,6.593631267547607,6.67982292175293
1728893614780222700,4.20322265625,2.3104045391082764,6.773196697235107,6.689399719238281
1728893614790201900,4.213201904296875,2.343923568725586,6.9240312576293945,6.751648902893066
1728893614800181000,4.223180908203125,2.5689783096313477,6.71334171295166,6.627150535583496
1728893614810160400,4.233160400390625,2.784456491470337,6.773196697235107,6.773196697235107
1728893614820139500,4.243139404296875,2.7126305103302,6.7277069091796875,6.828263282775879
1728893614830119000,4.253118896484375,2.557007312774658,6.840234279632568,6.94079065322876
1728893614840098000,4.26309814453125,2.3056161403656006,6.787561893463135,6.9455790519714355
1728893614850077400,4.273077392578125,2.1140801906585693,6.617573261260986,6.981492042541504
1728893614860056600,4.283056640625,1.9847931861877441,6.519411087036133,6.979097843170166
1728893614870066400,4.29306640625,1.8770540952682495,6.7277069091796875,7.058106422424316
1728893614880045600,4.303045654296875,1.7501614093780518,6.596025466918945,6.866570472717285
1728893614890055400,4.313055419921875,1.8411411046981812,6.63433313369751,6.885724067687988
1728893614900034600,4.32303466796875,2.183511972427368,6.469132900238037,6.67982292175293
1728893614910044400,4.33304443359375,2.5019407272338867,6.6127848625183105,6.703764915466309
1728893614920023600,4.3430234375,2.477998733520508,6.615179061889648,6.818686485290527
1728893614930003000,4.3530029296875,2.5929205417633057,6.382941722869873,6.988674640655518
1728893614939982000,4.362982177734375,2.5258827209472656,6.174646377563477,6.861782073974609
1728893614949961500,4.37296142578125,2.248155355453491,6.449979305267334,6.9455790519714355
1728893614959940600,4.382940673828125,2.0590133666992188,6.490680694580078,6.8593878746032715
1728893614969920000,4.392919921875,1.8938134908676147,6.3518171310424805,6.636727333068848
1728893614979899100,4.402899169921875,1.9393033981323242,6.574477672576904,6.75883150100708
1728893614989878300,4.412878173828125,2.274491548538208,6.098031520843506,6.703764915466309
1728893614999857700,4.422857666015625,2.5043349266052246,6.375759124755859,6.794744491577148
1728893615009867300,4.4328671875,2.4660277366638184,6.5696892738342285,6.89530086517334
1728893615019846700,4.4428466796875,2.432508945465088,6.710947513580322,6.914454460144043
1728893615029856500,4.4528564453125,2.2218191623687744,6.7061591148376465,6.9240312576293945
1728893615039835600,4.462835693359375,1.965639591217041,6.756437301635742,7.0126166343688965
1728893615049814800,4.472814697265625,1.8531121015548706,6.696582317352295,6.988674640655518
1728893615059794200,4.482794189453125,1.9345149993896484,6.552929878234863,6.94079065322876
1728893615069773300,4.492773193359375,2.1978771686553955,6.517016887664795,7.084442615509033
1728893615079752700,4.502752685546875,2.5043349266052246,6.392518520355225,7.177816867828369
1728893615089731800,4.51273193359375,2.561795711517334,6.521805286407471,7.347805023193359
1728893615099711200,4.522711181640625,2.3726539611816406,6.5481414794921875,7.264008045196533
1728893615109690400,4.5326904296875,2.1284453868865967,6.75883150100708,7.443572998046875
1728893615119669800,4.542669677734375,2.207453966140747,6.864176273345947,7.589619159698486
1728893615129649000,4.55264892578125,2.434903144836426,6.947973251342773,7.599195957183838
1728893615139628000,4.5626279296875,2.63362193107605,6.983886241912842,7.694964408874512
1728893615149607400,4.572607421875,2.585737943649292,6.801927089691162,7.625532627105713
1728893615159586600,4.582586669921875,2.451662540435791,6.801927089691162,7.548917770385742
1728893615169596400,4.592596435546875,2.3535003662109375,6.72531270980835,7.326257228851318
1728893615179575600,4.602575439453125,2.3343467712402344,6.629544734954834,7.141903877258301
1728893615189585400,4.61258544921875,2.38462495803833,6.5050458908081055,6.995857238769531
1728893615199564500,4.622564453125,2.4133553504943848,6.366182327270508,6.98628044128418
1728893615209574400,4.632574462890625,2.4660277366638184,6.1770405769348145,6.864176273345947
1728893615219553800,4.6425537109375,2.4803929328918457,6.18182897567749,6.866570472717285
1728893615229563400,4.6525634765625,2.3247697353363037,6.124367713928223,6.825869083404541
1728893615239542800,4.662542724609375,2.319981336593628,6.294356346130371,7.026981830596924
1728893615249552400,4.672552490234375,2.2170307636260986,6.229712963104248,7.074865818023682
1728893615259531800,4.68253173828125,2.1595699787139893,6.205770969390869,7.134721279144287
1728893615269541400,4.692541259765625,2.1523873805999756,6.119579315185547,7.180211067199707
1728893615279520800,4.702520751953125,2.142810583114624,5.940014362335205,7.151480674743652
1728893615289530400,4.7125302734375,2.049436569213867,6.007051944732666,7.266402244567871
1728893615299509800,4.722509765625,2.0685901641845703,5.925649166107178,7.338228225708008
1728893615309519400,4.732519287109375,1.9991583824157715,5.928043365478516,7.33583402633667
1728893615319498800,4.742498779296875,1.946485996246338,5.978321552276611,7.280767440795898
1728893615329508600,4.752508544921875,2.0039467811584473,6.023811340332031,7.441178798675537
1728893615339487700,4.76248779296875,1.8794482946395874,5.849034786224365,7.378929615020752
1728893615349497600,4.77249755859375,1.723825216293335,5.932831764221191,7.357381820678711
1728893615359476700,4.782476806640625,1.4508862495422363,5.868188381195068,7.558494567871094
1728893615369456000,4.7924560546875,1.3335703611373901,5.92325496673584,7.5201873779296875
1728893615379435300,4.802435302734375,1.256955862045288,6.081272125244141,7.644686222076416
1728893615389414400,4.812414306640625,1.534683346748352,6.172252178192139,7.888894557952881
1728893615399393800,4.822393798828125,1.6280571222305298,5.698200225830078,8.01339340209961
1728893615409403400,4.8324033203125,1.8100165128707886,5.623979568481445,8.090007781982422
1728893615419382800,4.8423828125,1.766920804977417,5.784391403198242,8.169015884399414
1728893615429392600,4.852392578125,1.2018892765045166,5.980715751647949,8.38688850402832
1728893615439371800,4.862371826171875,1.01753568649292,5.925649166107178,8.434772491455078
1728893615449381600,4.872381591796875,0.6751648783683777,5.453991413116455,7.955932140350342
1728893615459360800,4.88236083984375,0.47165772318840027,5.324704647064209,8.003816604614258
1728893615469370600,4.89237060546875,0.33279404044151306,5.293580055236816,8.090007781982422
1728893615479349800,4.902349853515625,0.16759411990642548,5.080495834350586,7.73087739944458
1728893615489359600,4.912359619140625,-0.05506663769483566,5.549759387969971,7.69735860824585
1728893615499338800,4.9223388671875,-0.17956513166427612,5.9974751472473145,7.690176010131836
1728893615509348600,4.9323486328125,-0.3974374830722809,5.894524574279785,7.422025203704834
1728893615519327700,4.94232763671875,-0.6536170840263367,5.621585369110107,7.280767440795898
1728893615529337600,4.952337646484375,-0.6368576288223267,6.035782337188721,7.429207801818848
1728893615539316700,4.962316650390625,-0.6416460275650024,5.750872611999512,7.3669586181640625
1728893615549326600,4.97232666015625,-0.4572925269603729,6.189011573791504,7.709329605102539
1728893615559306000,4.982305908203125,-0.4118026793003082,5.664681434631348,7.565677165985107
1728893615569285000,4.99228515625,-0.2513911724090576,6.098031520843506,7.843404769897461
1728893615579295000,5.002294921875,-0.09816227108240128,6.095637321472168,7.850587368011475
1728893615589274000,5.012274169921875,0.033518824726343155,5.568912982940674,7.398083209991455
1728893615599284000,5.022283935546875,0.14365209639072418,6.04775333404541,7.778761386871338
1728893615609293600,5.03229345703125,0.2059013396501541,5.959167957305908,7.726089000701904
1728893615619273000,5.04227294921875,0.33279404044151306,5.70777702331543,7.481880187988281
1728893615629252000,5.052252197265625,0.3495534360408783,5.767632007598877,7.570465564727783
1728893615639262000,5.062261962890625,0.2849099934101105,5.439626216888428,8.135497093200684
1728893615649271800,5.072271728515625,0.44532153010368347,4.999093055725098,8.501810073852539
1728893615659251000,5.0822509765625,0.6248866319656372,4.764461517333984,8.803479194641113
1728893615669230000,5.09222998046875,0.42856210470199585,4.8722004890441895,8.772355079650879
1728893615679240000,5.102239990234375,0.3711012601852417,5.197812080383301,8.439560890197754
1728893615689249800,5.112249755859375,0.20111294090747833,4.757278919219971,8.341399192810059
1728893615699229000,5.12222900390625,0.1628057211637497,4.608838081359863,8.377311706542969
1728893615709238800,5.13223876953125,0.26336219906806946,5.621585369110107,8.329427719116211
1728893615719218000,5.142218017578125,0.12210428714752197,6.67982292175293,8.305485725402832
1728893615729227800,5.152227783203125,-0.24420857429504395,5.7125654220581055,8.719682693481445
1728893615739207000,5.16220703125,-0.10055647045373917,4.953603267669678,8.827422142028809
1728893615749216800,5.172216796875,0.17717093229293823,4.632780075073242,8.9064302444458
1728893615759196000,5.18219580078125,0.3998316824436188,4.587290287017822,8.875306129455566
1728893615769205800,5.192205810546875,0.3998316824436188,4.51067590713501,8.899248123168945
1728893615779185000,5.202184814453125,0.4189853072166443,4.383783340454102,9.011775016784668
1728893615789164300,5.212164306640625,0.5674257874488831,4.352658748626709,9.217676162719727
1728893615799143400,5.222143310546875,0.6967126727104187,4.244919776916504,9.29189682006836
1728893615809153300,5.2321533203125,0.7015010714530945,4.146757125854492,9.394847869873047
1728893615819132400,5.24213232421875,0.7206547260284424,3.976768970489502,9.411606788635254
1728893615829142300,5.252142333984375,0.768538773059845,3.818751811981201,9.411606788635254
1728893615839121400,5.262121337890625,0.8547300100326538,3.711012601852417,9.495404243469238
1728893615849131300,5.27213134765625,0.9888052940368652,3.60566782951355,9.583989143371582
1728893615859110700,5.282110595703125,1.1109095811843872,3.469198226928711,9.615114212036133
1728893615869089800,5.29208984375,1.2521674633026123,3.361459255218506,9.674968719482422
1728893615879099600,5.302099609375,1.2976573705673218,3.3039982318878174,9.713275909423828
1728893615889109200,5.312109130859375,1.3479355573654175,3.2417490482330322,9.78989028930664
1728893615899088600,5.322088623046875,1.3479355573654175,3.3662476539611816,9.945513725280762
1728893615909067800,5.33206787109375,1.3407529592514038,3.598485231399536,10.06043529510498
1728893615919077600,5.34207763671875,1.3623007535934448,3.751713991165161,10.15141487121582
1728893615929087200,5.352087158203125,1.3215993642807007,4.630385875701904,10.153809547424316
1728893615939066600,5.362066650390625,1.0558429956436157,4.776432514190674,9.96945571899414
1728893615949045800,5.372045654296875,0.6368576288223267,4.098873138427734,9.854534149169922
1728893615959025200,5.382025146484375,0.6631938815116882,4.707000732421875,9.703699111938477
1728893615969034800,5.39203466796875,0.395043283700943,6.378153324127197,9.442731857299805
1728893615979044600,5.402044677734375,-0.10055647045373917,5.999869346618652,9.406818389892578
1728893615989054500,5.412054443359375,-0.31842881441116333,4.790797710418701,8.966285705566406
1728893615999064000,5.42206396484375,-0.17956513166427612,3.5458126068115234,8.959102630615234
1728893616009043500,5.43204345703125,0.0454898327589035,2.779668092727661,9.409213066101074
1728893616019053000,5.442052978515625,-0.14365209639072418,2.9664158821105957,9.672574996948242
1728893616029032400,5.452032470703125,-0.3926490843296051,3.069366693496704,9.794678688049316
1728893616039011600,5.462011474609375,-0.646434485912323,3.090914487838745,9.80904483795166
1728893616049021400,5.472021484375,-0.9481038451194763,3.4548330307006836,9.639056205749512
1728893616059000600,5.48200048828125,-0.8331822156906128,3.557783842086792,9.437943458557129
1728893616069010400,5.492010498046875,-0.5506663918495178,3.5745432376861572,9.346963882446289
1728893616079020300,5.502020263671875,-0.12689268589019775,3.7445313930511475,9.35893440246582
1728893616088999400,5.51199951171875,0.181959331035614,3.7421371936798096,9.301473617553711
1728893616098978800,5.521978759765625,0.26815059781074524,3.4955344200134277,9.215282440185547
1728893616108988400,5.531988525390625,0.3711012601852417,3.2609026432037354,9.064447402954102
1728893616118998300,5.541998291015625,0.3926490843296051,2.717418909072876,8.829815864562988
1728893616129008000,5.552008056640625,0.3280056416988373,2.4827871322631836,8.736441612243652
1728893616139017700,5.562017822265625,0.33518823981285095,2.5450363159179688,8.678980827331543
1728893616149027600,5.572027587890625,0.37828385829925537,2.5522189140319824,8.564059257507324
1728893616159037200,5.582037109375,0.38307225704193115,2.5929205417633057,8.556877136230469
1728893616169016600,5.5920166015625,0.43095630407333374,2.7676970958709717,8.506598472595215
1728893616178995700,5.60199560546875,0.5003881454467773,2.8371291160583496,8.607154846191406
1728893616189005600,5.612005615234375,0.6129156351089478,2.827552318572998,8.674192428588867
1728893616198984700,5.621984619140625,0.4836287498474121,2.612074136734009,8.78432559967041
1728893616208994600,5.63199462890625,0.26815059781074524,2.676717519760132,8.923190116882324
1728893616218974000,5.641973876953125,-0.011971008032560349,2.5258827209472656,9.023746490478516
1728893616228983600,5.651983642578125,-0.26096799969673157,2.5929205417633057,9.17936897277832
1728893616238993400,5.661993408203125,-0.4381389021873474,2.0901381969451904,9.150638580322266
1728893616249003000,5.6720029296875,-0.5219359993934631,2.188300371170044,9.191340446472168
1728893616258982400,5.681982421875,-0.608127236366272,2.3080103397369385,9.074024200439453
1728893616268992300,5.6919921875,-0.5889736413955688,2.449268341064453,9.299078941345215
1728893616278971400,5.701971435546875,-0.38067805767059326,2.3989901542663574,9.306262016296387
1728893616288981200,5.711981201171875,-0.24181437492370605,2.315192937850952,9.32541561126709
1728893616298960400,5.72196044921875,-0.0071826050989329815,2.185906171798706,9.241618156433105
1728893616308970200,5.73197021484375,0.22744916379451752,2.561795711517334,9.318233489990234
1728893616318949400,5.741949462890625,0.33039984107017517,2.8395233154296875,9.459490776062012
1728893616328959200,5.751959228515625,0.45489832758903503,3.272873640060425,9.502586364746094
1728893616338938400,5.7619384765625,0.5434837937355042,3.799597978591919,9.375694274902344
1728893616348948200,5.7719482421875,0.7182605266571045,3.136404275894165,9.196128845214844
1728893616358927400,5.78192724609375,0.6655880808830261,3.6391866207122803,9.344569206237793
1728893616368906800,5.79190673828125,0.7422025203704834,3.6990416049957275,9.428366661071777
1728893616378886000,5.801885986328125,0.9457096457481384,3.5434184074401855,9.44991397857666
1728893616388895700,5.811895751953125,1.0630255937576294,3.9025487899780273,9.464279174804688
1728893616398875000,5.821875,1.2066776752471924,4.062960147857666,9.330204010009766
1728893616408854300,5.831854248046875,1.2952631711959839,3.2992098331451416,9.27034854888916
1728893616418833400,5.84183349609375,1.4101848602294922,3.579331636428833,9.260771751403809
1728893616428812800,5.851812744140625,1.5442601442337036,4.20421838760376,9.263166427612305
1728893616438792000,5.8617919921875,1.479616641998291,3.555389642715454,9.423578262329102
1728893616448771000,5.87177099609375,1.381454348564148,3.8546648025512695,9.44991397857666
1728893616458750500,5.88175048828125,1.482010841369629,3.404554843902588,9.533711433410645
1728893616468729600,5.8917294921875,1.5322890281677246,3.4308910369873047,9.459490776062012
1728893616478709000,5.901708984375,1.5538369417190552,3.667917013168335,9.437943458557129
1728893616488688000,5.911688232421875,1.522712230682373,3.912125587463379,9.44991397857666
1728893616498667500,5.92166748046875,1.292868971824646,3.995922565460205,9.064447402954102
1728893616508677000,5.931677001953125,0.9528923034667969,4.043806552886963,8.719682693481445
1728893616518656500,5.941656494140625,0.646434485912323,3.579331636428833,8.796297073364258
1728893616528666000,5.951666015625,0.5913678407669067,4.206612586975098,8.995016098022461
1728893616538645500,5.9616455078125,0.6248866319656372,4.290409564971924,9.246406555175781
1728893616548624600,5.971624755859375,1.0678139925003052,4.273650169372559,9.576807022094727
1728893616558604000,5.98160400390625,1.1228805780410767,4.357447147369385,9.983820915222168
1728893616568583200,5.991583251953125,1.2761094570159912,4.592078685760498,9.93354320526123
1728893616578562600,6.0015625,1.3455413579940796,3.663128614425659,9.828198432922363
1728893616588541700,6.011541748046875,0.9792284965515137,3.069366693496704,9.763554573059082
1728893616598520800,6.021520751953125,0.751779317855835,3.2752678394317627,10.072406768798828
1728893616608500200,6.031500244140625,0.545877993106842,3.6511576175689697,10.433931350708008
1728893616618479400,6.041479248046875,0.2513911724090576,3.509899616241455,10.261548042297363
1728893616628489200,6.0514892578125,-0.1604115068912506,3.1268274784088135,10.642226219177246
1728893616638468400,6.06146826171875,-0.2992752194404602,2.557007312774658,10.776301383972168
1728893616648478200,6.071478271484375,-0.42856210470199585,2.166752576828003,10.714052200317383
1728893616658457600,6.08145751953125,-0.4189853072166443,2.049436569213867,10.891223907470703
1728893616668436700,6.091436767578125,0.08619125932455063,1.9488801956176758,10.886435508728027
1728893616678446600,6.101446533203125,0.9481038451194763,3.1316158771514893,10.927136421203613
1728893616688456200,6.111456298828125,1.4317326545715332,2.9257144927978516,10.682928085327148
1728893616698466000,6.121466064453125,1.5729905366897583,2.58813214302063,10.462661743164062
1728893616708476000,6.131475830078125,1.623268723487854,2.6144683361053467,10.247182846069336
1728893616718455000,6.141455078125,1.556231141090393,2.561795711517334,10.125079154968262
1728893616728465000,6.15146484375,1.455674648284912,2.5929205417633057,9.964667320251465
1728893616738444000,6.161444091796875,1.292868971824646,2.779668092727661,9.81143856048584
1728893616748423200,6.171423095703125,1.1444283723831177,2.8586769104003906,9.552865028381348
1728893616758402600,6.181402587890625,1.0438719987869263,2.9759926795959473,9.35893440246582
1728893616768381700,6.191381591796875,1.0247182846069336,2.9017724990844727,9.102754592895508
1728893616778361000,6.201361083984375,0.9097966551780701,2.5330653190612793,9.093177795410156
1728893616788340200,6.21134033203125,0.8619126081466675,3.114856481552124,8.647856712341309
1728893616798319600,6.221319580078125,0.586579442024231,2.631227731704712,8.616731643676758
1728893616808329200,6.2313291015625,0.4908113479614258,2.626439332962036,8.346187591552734
1728893616818278100,6.241278076171875,0.5339069962501526,2.8227639198303223,8.097189903259277
1728893616828287700,6.251287841796875,0.5339069962501526,2.4229321479797363,7.970297336578369
1728893616838297600,6.261297607421875,0.4692635238170624,2.3127987384796143,7.951143741607666
1728893616848307200,6.27130712890625,0.4668693244457245,2.293645143508911,8.233659744262695
1728893616858317000,6.281317138671875,0.4812345504760742,2.212242364883423,8.573636054992676
1728893616868327000,6.291326904296875,0.5386953949928284,2.33913516998291,8.848969459533691
1728893616878306000,6.30130615234375,0.5841852426528931,2.4636335372924805,9.040505409240723
1728893616888316000,6.31131591796875,0.6009446382522583,2.6001031398773193,9.14345645904541
1728893616898325800,6.32132568359375,0.6584054827690125,2.647987127304077,9.136273384094238
1728893616908335400,6.33133544921875,0.7158663272857666,2.6431987285614014,9.07641887664795
1728893616918314800,6.341314697265625,0.6871358752250671,2.7676970958709717,9.016563415527344
1728893616928324400,6.351324462890625,0.545877993106842,2.7126305103302,8.913613319396973
1728893616938303700,6.3613037109375,0.3495534360408783,2.650381326675415,9.062053680419922
1728893616948283000,6.371282958984375,0.23702596127986908,2.7126305103302,9.344569206237793
1728893616958262300,6.38126220703125,0.08619125932455063,2.827552318572998,9.428366661071777
1728893616968272000,6.39127197265625,-0.05267243832349777,2.8802247047424316,9.493009567260742
1728893616978281700,6.40128173828125,-0.09816227108240128,2.8227639198303223,9.418789863586426
1728893616988291600,6.41129150390625,-0.08379705995321274,2.628833532333374,9.275136947631836
1728893616998270700,6.421270751953125,-0.10773907601833344,2.456450939178467,9.188945770263672
1728893617008249900,6.431249755859375,-0.06464344263076782,2.427720546722412,9.14345645904541
1728893617018229200,6.441229248046875,-0.040701430290937424,2.365471363067627,9.17936897277832
1728893617028208400,6.45120849609375,0.19153612852096558,2.229001760482788,9.14345645904541
1728893617038187800,6.461187744140625,0.28730419278144836,2.205059766769409,9.184157371520996
1728893617048167000,6.4711669921875,0.4644751250743866,2.078166961669922,9.23443603515625
1728893617058146300,6.481146240234375,0.6823474764823914,2.190694570541382,9.196128845214844
1728893617068125400,6.49112548828125,0.7110779285430908,2.2361843585968018,9.220070838928223
1728893617078104600,6.5011044921875,0.7805097699165344,2.2649147510528564,9.275136947631836
1728893617088114400,6.511114501953125,0.8643068075180054,2.185906171798706,9.370905876159668
1728893617098124300,6.521124267578125,0.9552865028381348,2.078166961669922,9.35654067993164
1728893617108134000,6.5311337890625,1.0797849893569946,2.298433542251587,9.255983352661133
1728893617118113300,6.54111328125,1.0989385843276978,2.315192937850952,9.241618156433105
1728893617128123000,6.551122802734375,1.0558429956436157,2.250549554824829,9.148244857788086
1728893617138132700,6.5611328125,1.0558429956436157,2.276885747909546,9.093177795410156
1728893617148142600,6.571142578125,0.9289502501487732,2.3319525718688965,9.014169692993164
1728893617158121700,6.581121826171875,0.811634361743927,2.4875755310058594,8.947132110595703
1728893617168101000,6.59110107421875,0.6344634294509888,2.492363929748535,8.935160636901855
1728893617178080300,6.601080322265625,0.47884035110473633,2.3918075561523438,8.937555313110352
1728893617188090000,6.611090087890625,0.31364041566848755,2.542642116546631,8.87051773071289
1728893617198069200,6.6210693359375,0.2513911724090576,2.626439332962036,8.786720275878906
1728893617208079000,6.6310791015625,0.2537853717803955,2.585737943649292,8.78432559967041
1728893617218058200,6.641058349609375,0.3519476354122162,2.8155810832977295,8.860940933227539
1728893617228037600,6.65103759765625,0.395043283700943,2.911349296569824,8.793902397155762
1728893617238047200,6.661047119140625,0.507570743560791,2.9065608978271484,8.667010307312012
1728893617248057000,6.67105712890625,0.608127236366272,2.9233202934265137,8.631096839904785
1728893617258067000,6.68106689453125,0.7398083209991455,3.0837318897247314,8.69334602355957
1728893617268076500,6.69107666015625,0.9026140570640564,3.155557870864868,8.825027465820312
1728893617278086400,6.70108642578125,1.0319008827209473,3.3231520652770996,9.040505409240723
1728893617288065500,6.7110654296875,1.194706678390503,3.466804027557373,9.136273384094238
1728893617298075400,6.721075439453125,1.3215993642807007,3.579331636428833,9.263166427612305
1728893617308054500,6.731054443359375,1.3623007535934448,3.600879430770874,9.32302188873291
1728893617318034000,6.741033935546875,1.460463047027588,3.8331170082092285,9.354146003723145
1728893617328043800,6.751043701171875,1.4652514457702637,3.952826976776123,9.418789863586426
1728893617338083800,6.761083740234375,1.4101848602294922,3.883395195007324,9.342175483703613
1728893617348093700,6.77109375,1.280897855758667,3.7636849880218506,9.332598686218262
1728893617358072800,6.78107275390625,1.1180921792984009,3.550601005554199,9.222464561462402
1728893617368082700,6.791082763671875,0.9074024558067322,2.7485435009002686,9.68933391571045
1728893617378062000,6.80106201171875,0.7422025203704834,2.7533318996429443,9.737217903137207
1728893617388071700,6.81107177734375,0.6799532771110535,2.470816135406494,9.895236015319824
1728893617398051000,6.821051025390625,0.6224924325942993,2.363077163696289,10.11789608001709
1728893617408030200,6.8310302734375,0.6368576288223267,2.8155810832977295,10.314221382141113
1728893617418040000,6.8410400390625,0.7852981686592102,2.6384103298187256,10.20648193359375
1728893617428019200,6.851019287109375,0.8882488012313843,2.583343744277954,10.307038307189941
1728893617438029000,6.861029052734375,0.9888052940368652,2.564189910888672,10.407594680786133
1728893617448008200,6.87100830078125,1.039083480834961,2.5330653190612793,10.362105369567871
1728893617457987600,6.880987548828125,1.216254472732544,3.6535518169403076,9.773131370544434
1728893617467997200,6.8909970703125,0.9792284965515137,1.9249382019042969,8.638279914855957
1728893617477976600,6.9009765625,0.4429273009300232,0.727837324142456,8.451532363891602
1728893617487955700,6.910955810546875,0.0454898327589035,1.2521674633026123,8.437167167663574
1728893617497935000,6.92093505859375,0.14365209639072418,1.482010841369629,8.374917984008789
1728893617507944700,6.93094482421875,0.3758896589279175,1.0678139925003052,7.8098859786987305
1728893617517924000,6.940924072265625,0.6727706789970398,0.7565677165985107,7.745242595672607
1728893617527903200,6.9509033203125,0.8427590131759644,0.6272808313369751,7.910442352294922
1728893617537882600,6.960882568359375,1.01753568649292,0.9074024558067322,8.001421928405762
1728893617547892200,6.970892333984375,1.2042834758758545,1.2737152576446533,8.063671112060547
1728893617557902000,6.980902099609375,1.335964560508728,1.3503297567367554,8.403648376464844
1728893617567912000,6.990911865234375,1.4963760375976562,1.7812861204147339,8.769960403442383
1728893617577921500,7.000921630859375,1.6352397203445435,2.2002713680267334,8.99740982055664
1728893617587931400,7.010931396484375,1.6687586307525635,2.3726539611816406,9.129091262817383
1728893617597910500,7.02091064453125,1.6855180263519287,2.612074136734009,9.196128845214844
1728893617607890000,7.030889892578125,1.6903064250946045,2.580949544906616,9.38048267364502
1728893617617869000,7.040869140625,1.742978811264038,2.741360902786255,9.560047149658203
1728893617627848400,7.050848388671875,1.6903064250946045,3.095702886581421,9.816226959228516
1728893617637827600,7.06082763671875,1.5705963373184204,3.2130186557769775,9.856928825378418
1728893617647806700,7.070806640625,1.4221558570861816,3.1268274784088135,9.648633003234863
1728893617657786000,7.0807861328125,1.1755530834197998,2.9735984802246094,9.366117477416992
1728893617667796000,7.0907958984375,1.0319008827209473,2.8347349166870117,9.253589630126953
1728893617677775000,7.100775146484375,1.0630255937576294,2.7724854946136475,9.275136947631836
1728893617687754200,7.110754150390625,1.0007762908935547,2.956839084625244,9.196128845214844
1728893617697733600,7.120733642578125,0.9145850539207458,2.9472622871398926,9.181763648986816
1728893617707743500,7.130743408203125,1.0055646896362305,3.0837318897247314,9.136273384094238
1728893617717722600,7.14072265625,0.8738836050033569,2.9975404739379883,9.014169692993164
1728893617727732500,7.150732421875,0.8834604024887085,3.047818660736084,9.038111686706543
1728893617737742000,7.1607421875,1.01753568649292,2.959233283996582,8.990227699279785
1728893617747752000,7.170751953125,1.1013327836990356,2.920926094055176,8.918401718139648
1728893617757731000,7.18073095703125,1.1444283723831177,2.8107926845550537,8.841787338256836
1728893617767741000,7.190740966796875,1.1683704853057861,2.827552318572998,8.83939266204834
1728893617777720000,7.200719970703125,1.1827356815338135,2.892195701599121,8.908824920654297
1728893617787699500,7.210699462890625,1.1348515748977661,2.9017724990844727,8.901641845703125
1728893617797678600,7.2206787109375,1.015141487121582,2.779668092727661,8.899248123168945
1728893617807688400,7.2306884765625,0.9576807022094727,2.7246015071868896,8.920795440673828
1728893617817667600,7.24066748046875,0.8427590131759644,2.719813108444214,8.947132110595703
1728893617827647000,7.25064697265625,0.7374141216278076,2.738966703414917,8.98543930053711
1728893617837626000,7.260626220703125,0.6991068720817566,2.6431987285614014,8.990227699279785
1728893617847636000,7.270635986328125,0.6943184733390808,2.7246015071868896,8.944737434387207
1728893617857645800,7.280645751953125,0.7158663272857666,2.6647465229034424,8.851364135742188
1728893617867655400,7.290655517578125,0.629675030708313,2.3271639347076416,9.05247688293457
1728893617877634800,7.300634765625,0.6248866319656372,2.7293899059295654,8.487444877624512
1728893617887614000,7.310614013671875,0.6631938815116882,2.8419175148010254,8.753201484680176
1728893617897593300,7.32059326171875,0.5626373887062073,2.827552318572998,8.834604263305664
1728893617907572500,7.330572509765625,0.6344634294509888,2.676717519760132,8.576030731201172
1728893617917551600,7.340551513671875,0.9145850539207458,2.6791117191314697,8.528146743774414
1728893617927531000,7.350531005859375,0.7206547260284424,2.894589900970459,8.681375503540039
1728893617937510100,7.36051025390625,0.8667010068893433,3.0597896575927734,8.755595207214355
1728893617947520000,7.37052001953125,0.7709329724311829,3.227383852005005,8.702922821044922
1728893617957499100,7.3804990234375,0.7086837291717529,3.335123062133789,8.53532886505127
1728893617967478500,7.390478515625,0.6320692300796509,3.1962592601776123,8.528146743774414
1728893617977457700,7.400457763671875,0.5339069962501526,2.9903578758239746,8.518569946289062
1728893617987467500,7.410467529296875,0.4692635238170624,2.7509377002716064,8.59997272491455
1728893617997446700,7.42044677734375,0.4405331015586853,2.6144683361053467,8.702922821044922
1728893618007456500,7.43045654296875,0.3495534360408783,2.983175277709961,8.69334602355957
1728893618017466400,7.44046630859375,0.3423708379268646,3.0813376903533936,8.695740699768066
1728893618027476000,7.45047607421875,0.35913026332855225,2.734178304672241,8.832210540771484
1728893618037485800,7.46048583984375,0.4836287498474121,2.6815059185028076,8.760383605957031
1728893618047495700,7.47049560546875,0.5602431893348694,2.875436305999756,8.978256225585938
1728893618057474800,7.480474853515625,0.5602431893348694,2.808398485183716,8.954314231872559
1728893618067454000,7.490453857421875,0.5961562395095825,3.00711727142334,8.882488250732422
1728893618077433300,7.500433349609375,0.6033388376235962,2.473210334777832,9.23682975769043
1728893618087412500,7.51041259765625,0.6129156351089478,2.31758713722229,9.057265281677246
1728893618097391900,7.520391845703125,0.6177040338516235,2.10210919380188,8.923190116882324
1728893618107371000,7.53037109375,0.43335050344467163,2.3271639347076416,8.810662269592285
1728893618117350400,7.540350341796875,0.23942017555236816,2.5689783096313477,8.927978515625
1728893618127360000,7.550360107421875,0.30885201692581177,2.779668092727661,9.01895809173584
1728893618137339400,7.56033935546875,0.3232172429561615,2.9065608978271484,8.947132110595703
1728893618147318500,7.570318603515625,0.24660277366638184,3.2609026432037354,8.822632789611816
1728893618157298000,7.5802978515625,0.35434186458587646,3.421314239501953,8.619126319885254
1728893618167277000,7.590277099609375,0.2585737705230713,2.853888511657715,8.655038833618164
1728893618177256200,7.600256103515625,0.22505496442317963,3.1890766620635986,8.389283180236816
1728893618187235600,7.610235595703125,0.19632454216480255,3.1220390796661377,8.425195693969727
1728893618197245400,7.620245361328125,0.2513911724090576,3.361459255218506,8.549694061279297
1728893618207255000,7.630255126953125,0.3064578175544739,3.3662476539611816,8.650250434875488
1728893618217234400,7.640234375,0.4836287498474121,3.2585084438323975,8.669404029846191
1728893618227213600,7.650213623046875,0.6177040338516235,2.9927520751953125,8.951920509338379
1728893618237192700,7.660192626953125,0.6871358752250671,2.6384103298187256,8.990227699279785
1728893618247202600,7.67020263671875,0.7924807667732239,2.7437551021575928,9.105149269104004
1728893618257151200,7.680151123046875,0.9050082564353943,2.691082715988159,9.169792175292969
1728893618267161000,7.6901611328125,0.7829039692878723,2.6815059185028076,9.169792175292969
1728893618277171000,7.7001708984375,0.7709329724311829,2.580949544906616,9.35654067993164
1728893618287180500,7.7101806640625,0.6153098344802856,2.6839001178741455,9.555258750915527
1728893618297190400,7.7201904296875,0.6224924325942993,3.155557870864868,9.840168952941895
1728893618307200300,7.7302001953125,0.5267243981361389,3.251325845718384,10.144232749938965
1728893618317179400,7.740179443359375,0.3495534360408783,2.96162748336792,10.307038307189941
1728893618327158500,7.750158447265625,0.28969839215278625,1.8818424940109253,9.911994934082031
1728893618337138000,7.760137939453125,-0.021547814831137657,2.4013843536376953,10.398017883300781
1728893618347117000,7.770116943359375,0.4692635238170624,3.711012601852417,9.813833236694336
1728893618357096400,7.780096435546875,0.3016694188117981,2.319981336593628,10.103530883789062
1728893618367106000,7.79010595703125,0.40940847992897034,2.315192937850952,10.038887977600098
1728893618377085400,7.80008544921875,0.5985504388809204,2.827552318572998,10.467450141906738
1728893618387095300,7.81009521484375,0.6344634294509888,3.2321722507476807,10.931924819946289
1728893618397074400,7.820074462890625,0.6919242739677429,3.801992416381836,10.773907661437988
1728893618407084300,7.830084228515625,1.1180921792984009,4.2951979637146,10.304644584655762
1728893618417063400,7.8400634765625,1.213860273361206,4.278438568115234,10.295066833496094
1728893618427042600,7.85004248046875,1.3311761617660522,4.627991676330566,10.371682167053223
1728893618437052400,7.860052490234375,1.460463047027588,5.216965675354004,10.445901870727539
1728893618447062300,7.870062255859375,1.5107412338256836,5.633556365966797,10.002974510192871
1728893618457041400,7.88004150390625,1.721431016921997,6.095637321472168,9.931148529052734
1728893618467051300,7.89005126953125,1.7932571172714233,6.112396717071533,9.734824180603027
1728893618477030400,7.900030517578125,1.824381709098816,5.74129581451416,9.710882186889648
1728893618487009800,7.910009765625,1.965639591217041,5.602431774139404,9.651026725769043
1728893618496989000,7.919989013671875,2.10210919380188,5.643133640289307,9.536105155944824
1728893618506998800,7.929998779296875,2.3127987384796143,5.770026206970215,9.169792175292969
1728893618517008400,7.94000830078125,2.4588451385498047,6.141127586364746,9.117119789123535
1728893618527018200,7.950018310546875,2.300827741622925,6.275202751159668,8.71728801727295
1728893618536997600,7.95999755859375,2.1523873805999756,6.265625953674316,8.62630844116211
1728893618547007200,7.97000732421875,2.118868589401245,6.160281181335449,8.595184326171875
1728893618556986600,7.979986572265625,2.1571757793426514,6.392518520355225,8.473079681396484
1728893618566965800,7.9899658203125,2.248155355453491,5.999869346618652,8.212111473083496
1728893618576945000,7.99994482421875,2.3558945655822754,6.054935932159424,8.027758598327637
1728893618586954800,8.009954833984375,2.298433542251587,6.174646377563477,7.929595947265625
1728893618596934100,8.01993408203125,2.032677173614502,6.107608318328857,7.845798969268799
1728893618606943700,8.02994384765625,1.7477672100067139,5.779603004455566,7.7213006019592285
1728893618616953600,8.03995361328125,1.6400281190872192,5.547365188598633,7.556100368499756
1728893618626963500,8.04996337890625,1.5107412338256836,5.394136428833008,7.589619159698486
1728893618636973000,8.05997314453125,1.3623007535934448,5.5114521980285645,7.599195957183838
1728893618646952400,8.069952392578125,1.1276689767837524,5.614402770996094,7.6782050132751465
1728893618656962000,8.079962158203125,1.1803414821624756,5.588066577911377,7.527369976043701
1728893618666972000,8.089971923828125,1.0414776802062988,5.322310447692871,7.625532627105713
1728893618676981800,8.099981689453125,1.1204863786697388,5.295974254608154,7.702147006988525
1728893618686991400,8.109991455078125,1.05105459690094,5.540182590484619,7.769184589385986
1728893618696970800,8.119970703125,0.8595184087753296,5.9088897705078125,7.879317760467529
1728893618706950000,8.129949951171875,0.6847416758537292,6.074089527130127,7.943961143493652
1728893618716929300,8.13992919921875,0.6991068720817566,6.1770405769348145,7.82185697555542
1728893618726908400,8.149908447265625,0.7876923680305481,5.963956356048584,7.845798969268799
1728893618736887600,8.159887451171874,1.1779472827911377,5.252878665924072,8.597578048706055
1728893618746867000,8.169866943359375,1.4700398445129395,4.412513732910156,9.354146003723145
1728893618756846000,8.17984619140625,1.522712230682373,3.804386615753174,9.885659217834473
1728893618766856000,8.18985595703125,1.2545616626739502,3.4811692237854004,10.273519515991211
1728893618776865800,8.19986572265625,1.3335703611373901,3.270479440689087,10.350133895874023
1728893618786875400,8.20987548828125,1.216254472732544,3.687070608139038,10.3549222946167
1728893618796854800,8.219854736328125,1.434126853942871,4.299986362457275,10.041281700134277
1728893618806834000,8.229833984375,1.6184803247451782,4.721365928649902,9.785101890563965
1728893618816813300,8.239813232421875,1.460463047027588,4.888959884643555,9.550470352172852
1728893618826823000,8.249822998046875,1.2880805730819702,4.955997467041016,9.210494041442871
1728893618836802300,8.25980224609375,1.2258312702178955,4.944026470184326,8.884882926940918
1728893618846781400,8.269781494140625,1.1492167711257935,5.056553840637207,8.537723541259766
1728893618856791300,8.279791259765625,1.1252747774124146,5.16429328918457,8.233659744262695
1728893618866801000,8.28980078125,1.0127472877502441,4.869806289672852,7.833827972412109
1728893618876780300,8.2997802734375,0.950498104095459,4.587290287017822,7.548917770385742
1728893618886790000,8.309789794921874,0.8523358106613159,4.393360137939453,7.0988078117370605
1728893618896769300,8.319769287109375,0.6847416758537292,4.225766181945801,6.701370716094971
1728893618906748400,8.32974853515625,0.608127236366272,4.37420654296875,6.385335922241211
1728893618916727800,8.339727783203125,0.5434837937355042,4.225766181945801,5.858611583709717
1728893618926707000,8.34970703125,0.45250412821769714,4.108449935913086,5.60722017288208
1728893618936716800,8.359716796875,0.49799394607543945,4.853046894073486,6.028599739074707
1728893618946726400,8.369726318359374,0.7038952708244324,5.8873419761657715,6.064512729644775
1728893618956705800,8.379705810546875,0.6799532771110535,6.344634532928467,5.748478412628174
1728893618966685000,8.389684814453124,0.7781155705451965,6.368576526641846,5.832275390625
1728893618976664300,8.399664306640625,0.8882488012313843,6.449979305267334,5.851428985595703
1728893618986674000,8.409673828125,0.8762778043746948,6.081272125244141,5.245696067810059
1728893618996653300,8.4196533203125,1.0342950820922852,6.236895561218262,5.173870086669922
1728893619006632400,8.429632568359375,1.2761094570159912,6.447585105895996,5.212177276611328
1728893619016611800,8.43961181640625,1.7381904125213623,6.042964935302734,5.049371242523193
1728893619026621400,8.449621337890624,2.3487119674682617,6.48828649520874,5.51624059677124
1728893619036600800,8.459600830078125,3.383007049560547,6.406883716583252,4.235342979431152
1728893619046610400,8.4696103515625,3.4308910369873047,6.92881965637207,3.9480385780334473
1728893619056589800,8.47958984375,3.5003228187561035,7.445967197418213,3.773261785507202
1728893619066569000,8.48956884765625,3.864241600036621,7.469909191131592,3.7038300037384033
1728893619076548400,8.49954833984375,4.486733913421631,7.553706169128418,4.3406877517700195
1728893619086527500,8.509527587890625,5.257667064666748,7.580042362213135,4.788403511047363
1728893619096507000,8.5195068359375,5.961562156677246,7.862558364868164,5.616796970367432
1728893619106486000,8.529486083984375,6.076483726501465,8.042123794555664,5.875370979309082
1728893619116496000,8.539495849609375,5.537788391113281,8.003816604614258,5.7556610107421875
1728893619126475000,8.54947509765625,4.529829502105713,7.632715225219727,5.260061264038086
1728893619136454400,8.559454345703125,3.4811692237854004,8.051700592041016,5.2696380615234375
1728893619146464000,8.569464111328125,2.719813108444214,8.118738174438477,5.293580055236816
1728893619156473900,8.579473876953125,2.27209734916687,8.04691219329834,5.453991413116455
1728893619166483700,8.589483642578125,2.2577321529388428,8.054094314575195,5.643133640289307
1728893619176462800,8.599462890625,2.229001760482788,7.948749542236328,5.7987565994262695
1728893619186442000,8.60944189453125,2.121262788772583,8.106766700744629,6.035782337188721
1728893619196421400,8.61942138671875,2.363077163696289,8.370129585266113,6.026205539703369
1728893619206400500,8.629400390625,2.123656988143921,8.33182144165039,6.033388137817383
1728893619216380000,8.6393798828125,2.4803929328918457,8.365341186523438,6.100425720214844
1728893619226359000,8.649359130859375,2.7054479122161865,8.257601737976074,5.980715751647949
1728893619236338400,8.65933837890625,2.9903578758239746,8.329427719116211,6.042964935302734
1728893619246348000,8.66934814453125,3.35667085647583,8.413225173950195,6.217741966247559
1728893619256327400,8.679327392578125,3.7253777980804443,8.621520042419434,6.414066314697266
1728893619266306600,8.689306640625,4.005499362945557,8.772355079650879,6.536170482635498
1728893619276286000,8.699285888671875,4.211400985717773,8.825027465820312,6.5265936851501465
1728893619286265000,8.70926513671875,4.529829502105713,8.78193187713623,6.670246124267578
1728893619296244200,8.719244140625,4.807557106018066,9.0859956741333,6.775590896606445
1728893619306254000,8.729254150390625,4.661510944366455,8.69334602355957,6.1052141189575195
1728893619316233500,8.7392333984375,4.730942726135254,8.676587104797363,6.320692539215088
1728893619326212600,8.749212646484375,4.72376012802124,8.564059257507324,6.4164605140686035
1728893619336191700,8.759191650390624,4.659116744995117,8.542511940002441,6.385335922241211
1728893619346201600,8.76920166015625,4.525041103363037,8.49941635131836,6.3063273429870605
1728893619356180700,8.7791806640625,4.4292731285095215,8.413225173950195,6.0621185302734375
1728893619366190600,8.789190673828125,4.388571739196777,8.396465301513672,5.872976779937744
1728893619376200400,8.799200439453125,4.268861770629883,8.396465301513672,5.729324817657471
1728893619386210000,8.8092099609375,4.180276393890381,8.142680168151855,5.4659624099731445
1728893619396159000,8.819158935546875,4.050989151000977,8.027758598327637,5.439626216888428
1728893619406168800,8.8291689453125,3.892971992492676,7.843404769897461,5.272032260894775
1728893619416178400,8.839178466796875,3.6798880100250244,7.390900611877441,5.16429328918457
1728893619426157800,8.84915771484375,3.622427225112915,7.376535415649414,5.051765441894531
1728893619436167400,8.85916748046875,3.584120035171509,7.350199222564697,4.917690277099609
1728893619446146800,8.869146728515625,3.5673606395721436,7.386112213134766,4.967968463897705
1728893619456126000,8.8791259765625,3.4811692237854004,7.29034423828125,4.697423934936523
1728893619466135800,8.8891357421875,3.471592426300049,7.201758861541748,4.4532151222229
1728893619476145400,8.8991455078125,3.509899616241455,7.376535415649414,4.28322696685791
1728893619486155300,8.9091552734375,3.4380736351013184,7.515398979187012,4.311957359313965
1728893619496134700,8.919134765625,3.4739866256713867,7.5968017578125,4.381389141082764
1728893619506113800,8.92911376953125,3.6966474056243896,7.625532627105713,4.417302131652832
1728893619516093000,8.939093017578125,3.9624037742614746,7.898471355438232,4.616020679473877
1728893619526072300,8.949072265625,4.170699596405029,7.972691535949707,4.661510944366455
1728893619536051500,8.959051513671875,4.331110954284668,8.26239013671875,4.752490520477295
1728893619546061300,8.969061279296875,4.331110954284668,8.451532363891602,4.793191909790039
1728893619556040400,8.97904052734375,4.201824188232422,8.633491516113281,4.797980308532715
1728893619566050300,8.98905029296875,3.9839515686035156,8.774748802185059,4.774038314819336
1728893619576029400,8.999029541015625,3.732560396194458,9.01895809173584,4.6950297355651855
1728893619586008800,9.0090087890625,3.466804027557373,9.030928611755371,4.683058738708496
1728893619596018700,9.019018798828125,3.1435868740081787,9.102754592895508,4.630385875701904
1728893619606028300,9.0290283203125,2.9281086921691895,8.913613319396973,5.197812080383301
1728893619616007700,9.039007568359375,3.0382418632507324,8.827422142028809,5.169081687927246
1728893619625986800,9.04898681640625,2.942473888397217,8.516175270080566,5.188235282897949
1728893619635996700,9.05899658203125,3.315969467163086,8.628703117370605,5.351040840148926
1728893619645975800,9.068975830078125,3.550601005554199,8.547300338745117,5.260061264038086
1728893619655955200,9.078955078125,3.734954595565796,8.556877136230469,5.214571475982666
1728893619665964800,9.08896484375,3.840299606323242,8.614337921142578,5.1331682205200195
1728893619675974700,9.098974609375,3.952826976776123,8.743624687194824,5.099649429321289
1728893619685953800,9.108953857421875,4.043806552886963,8.81784439086914,5.003881454467773
1728893619695933200,9.11893310546875,4.120420932769775,8.860940933227539,4.98472785949707
1728893619705942800,9.12894287109375,4.24970817565918,8.868123054504395,4.98472785949707
1728893619715922200,9.138922119140625,4.431667327880859,8.913613319396973,4.982333660125732
1728893619725901300,9.1489013671875,4.599261283874512,8.923190116882324,5.097255229949951
1728893619735911200,9.1589111328125,4.742913722991943,9.038111686706543,5.044582843780518
1728893619745921000,9.168921142578125,4.7836151123046875,9.136273384094238,5.070919036865234
1728893619755900200,9.178900146484375,4.843470096588135,9.191340446472168,5.035006046295166
1728893619765910000,9.188909912109375,4.903325080871582,9.3828763961792,5.092466831207275
1728893619775889200,9.19888916015625,4.802768707275391,9.519346237182617,5.061342239379883
1728893619785868300,9.208868408203125,4.72376012802124,9.66539192199707,5.135562419891357
1728893619795847700,9.21884765625,4.623203277587891,9.682151794433594,5.16429328918457
1728893619805857500,9.228857421875,4.484339714050293,9.679757118225098,5.16429328918457
1728893619815836700,9.238836669921875,4.347870349884033,9.749189376831055,5.262455463409424
1728893619825815800,9.24881591796875,4.290409564971924,9.78989028930664,5.295974254608154
1728893619835825700,9.25882568359375,4.299986362457275,9.821015357971191,5.279214859008789
1728893619845805000,9.26880517578125,4.180276393890381,9.646238327026367,5.2480902671813965
1728893619855784200,9.2787841796875,4.089296340942383,9.567230224609375,5.303156852722168
1728893619865794000,9.2887939453125,4.036623954772949,9.399636268615723,5.279214859008789
1728893619875803600,9.2988037109375,4.010287761688232,9.354146003723145,5.319916248321533
1728893619885813500,9.3088134765625,4.000710964202881,9.366117477416992,5.2265424728393555
1728893619895823400,9.3188232421875,3.928884983062744,9.26795482635498,5.188235282897949
1728893619905833000,9.3288330078125,3.976768970489502,9.21288776397705,5.149928092956543
1728893619915812400,9.338812255859375,3.928884983062744,8.983044624328613,5.04218864440918
1728893619925791500,9.34879150390625,3.9384617805480957,8.920795440673828,5.023035049438477
1728893619935771000,9.35877099609375,3.8786067962646484,8.757989883422852,4.886565685272217
1728893619945750000,9.36875,3.8307228088378906,8.609549522399902,4.8267107009887695
1728893619955729200,9.378729248046875,3.6559460163116455,8.547300338745117,4.774038314819336
1728893619965708500,9.38870849609375,3.5386300086975098,8.35097599029541,4.656722068786621
1728893619975687700,9.398687744140625,3.4548330307006836,8.2312650680542,4.606443881988525
1728893619985697500,9.408697509765625,3.3877954483032227,8.073247909545898,4.513070106506348
1728893619995676700,9.4186767578125,3.31118106842041,7.955932140350342,4.5154643058776855
1728893620005686500,9.4286865234375,3.19865345954895,7.781155586242676,4.4723687171936035
1728893620015696400,9.4386962890625,3.1292216777801514,7.68538761138916,4.424484729766846
1728893620025706000,9.4487060546875,3.0573954582214355,7.510610580444336,4.309563159942627
1728893620035715800,9.4587158203125,2.980781078338623,7.568071365356445,4.307168960571289
1728893620045725700,9.4687255859375,2.892195701599121,7.465120792388916,4.165910720825195
1728893620055735300,9.4787353515625,2.8227639198303223,7.457938194274902,4.211400985717773
1728893620065745200,9.4887451171875,2.7724854946136475,7.417236804962158,4.264073371887207
1728893620075724300,9.498724365234375,2.7006595134735107,7.338228225708008,4.378994941711426
1728893620085734100,9.508734130859375,2.87064790725708,7.232883453369141,4.321534156799316
1728893620095744000,9.518743896484375,2.868253707885742,7.237671852111816,4.278438568115234
1728893620105753600,9.528753662109375,2.7437551021575928,7.319074630737305,4.218583583831787
1728893620115733000,9.53873291015625,2.669534921646118,7.285555839538574,4.170699596405029
1728893620125712100,9.548712158203125,2.5522189140319824,7.340622425079346,4.185064792633057
1728893620135691500,9.55869140625,2.52109432220459,7.331045627593994,4.165910720825195
1728893620145670700,9.568670654296875,2.537853717803955,7.326257228851318,4.137180328369141
1728893620155649800,9.57864990234375,2.647987127304077,7.292738437652588,4.240131378173828
1728893620165659600,9.58865966796875,2.7676970958709717,7.362170219421387,4.28322696685791
1728893620175669500,9.59866943359375,2.8850131034851074,7.386112213134766,4.252102375030518
1728893620185679000,9.60867919921875,2.9472622871398926,7.448361396789551,4.256890773773193
1728893620195689000,9.61868896484375,2.9735984802246094,7.556100368499756,4.211400985717773
1728893620205698800,9.62869873046875,2.983175277709961,7.673416614532471,4.201824188232422
1728893620215678000,9.638677978515625,3.0166940689086914,7.682993412017822,4.10366153717041
1728893620225657300,9.6486572265625,3.0382418632507324,7.773972988128662,4.077325344085693
1728893620235636500,9.658636474609375,3.0358476638793945,7.869740962982178,4.0749311447143555
1728893620245615600,9.66861572265625,3.0526070594787598,8.020575523376465,4.0533833503723145
1728893620255595000,9.678594970703125,3.0358476638793945,8.044517517089844,4.072536945343018
1728893620265604900,9.68860498046875,3.0119056701660156,8.17380428314209,4.199429988861084
1728893620275584000,9.698583984375,2.9759926795959473,8.209717750549316,4.218583583831787
1728893620285563100,9.708563232421875,2.9496564865112305,8.26239013671875,4.326322555541992
1728893620295542500,9.71854248046875,2.9233202934265137,8.310274124145508,4.414907932281494
1728893620305552100,9.72855224609375,2.9448680877685547,8.250418663024902,4.4077253341674805
1728893620315531500,9.738531494140625,2.9544448852539062,8.303091049194336,4.501099109649658
1728893620325541400,9.748541259765625,2.9664158821105957,8.248024940490723,4.381389141082764
1728893620335520500,9.7585205078125,2.9688100814819336,8.209717750549316,4.431667327880859
1728893620345530400,9.7685302734375,2.9712042808532715,8.29830265045166,4.436455726623535
1728893620355540000,9.7785400390625,3.0095114707946777,8.250418663024902,4.402936935424805
1728893620365549800,9.7885498046875,3.0885202884674072,8.233659744262695,4.424484729766846
1728893620375559700,9.7985595703125,3.1962592601776123,8.212111473083496,4.446032524108887
1728893620385569300,9.8085693359375,3.335123062133789,8.24084186553955,4.441244125366211
1728893620395548700,9.818548583984375,3.426102638244629,8.334216117858887,4.448426723480225
1728893620405558300,9.828558349609375,3.4955344200134277,8.279149055480957,4.434061527252197
1728893620415568100,9.838568115234375,3.5745432376861572,8.47786808013916,4.484339714050293
1728893620425578000,9.848577880859375,3.646369218826294,8.643068313598633,4.481945514678955
1728893620435587600,9.858587646484375,3.73016619682312,8.75080680847168,4.49870491027832
1728893620445597400,9.868597412109375,3.799597978591919,8.78193187713623,4.572925090789795
1728893620455576600,9.87857666015625,3.9408559799194336,8.887276649475098,4.6471452713012695
1728893620465556000,9.888555908203125,3.9624037742614746,8.995016098022461,4.663905143737793
1728893620475535000,9.89853515625,3.957615375518799,9.155426979064941,4.776432514190674
1728893620485514500,9.908514404296875,4.000710964202881,9.277531623840332,4.786009311676025
1728893620495493600,9.91849365234375,4.003105163574219,9.466673851013184,4.793191909790039
1728893620505503500,9.92850341796875,3.952826976776123,9.605537414550781,4.797980308532715
1728893620515513000,9.93851318359375,3.794809579849243,9.634267807006836,4.8602294921875
1728893620525523000,9.94852294921875,3.6966474056243896,9.674968719482422,4.876988887786865
1728893620535502000,9.958502197265625,3.7181951999664307,9.548076629638672,4.90571928024292
1728893620545512000,9.968511962890625,3.773261785507202,9.545681953430176,4.934449672698975
1728893620555491300,9.9784912109375,3.823540210723877,9.425971984863281,4.994304656982422
1728893620565470500,9.988470458984375,3.8115692138671875,9.478644371032715,4.955997467041016
1728893620575449600,9.99844970703125,3.780444383621216,9.514557838439941,4.944026470184326
1728893620585429000,10.008428955078125,3.7181951999664307,9.603142738342285,4.999093055725098
1728893620595408100,10.018408203125,3.7014358043670654,9.564835548400879,5.008669853210449
1728893620605387500,10.028387451171875,3.8307228088378906,9.605537414550781,4.987122058868408
1728893620615366700,10.03836669921875,3.9647979736328125,9.469067573547363,5.015852451324463
1728893620625346000,10.048345947265625,4.194641590118408,9.521739959716797,4.994304656982422
1728893620635325200,10.0583251953125,4.436455726623535,9.557653427124023,4.999093055725098
1728893620645304600,10.0683046875,4.517858505249023,9.454702377319336,4.982333660125732
1728893620655283700,10.07828369140625,4.503493309020996,9.351752281188965,4.972756862640381
1728893620665293600,10.08829345703125,4.520252704620361,9.315838813781738,4.994304656982422
1728893620675272700,10.098272705078125,4.577713489532471,9.196128845214844,4.967968463897705
1728893620685251800,10.108251953125,4.67827033996582,9.17936897277832,4.910507678985596
1728893620695231200,10.118231201171875,4.788403511047363,9.251194953918457,4.8602294921875
1728893620705210400,10.12821044921875,4.819528102874756,9.263166427612305,4.716577529907227
1728893620715189800,10.138189697265625,4.812345504760742,9.26795482635498,4.67827033996582
1728893620725199400,10.148199462890625,4.910507678985596,9.157821655273438,4.666299343109131
1728893620735239700,10.15823974609375,5.082890033721924,9.337387084960938,4.692635536193848
1728893620745249500,10.16824951171875,5.190629482269287,9.35893440246582,4.55616569519043
1728893620755228700,10.178228759765625,5.286397457122803,9.346963882446289,4.479551315307617
1728893620765208000,10.1882080078125,5.432443618774414,9.313444137573242,4.383783340454102
1728893620775187200,10.198187255859375,5.499481201171875,9.41400146484375,4.242525577545166
1728893620785166600,10.20816650390625,5.449203014373779,9.667786598205566,4.106055736541748
1728893620795145700,10.218145751953125,5.808333396911621,9.84256362915039,3.9624037742614746
1728893620805125000,10.228125,5.683835029602051,10.046070098876953,3.9001545906066895
1728893620815104300,10.238104248046875,5.188235282897949,10.108319282531738,3.624821424484253
1728893620825114000,10.248114013671875,4.963180065155029,10.230423927307129,3.445256233215332
1728893620835062800,10.258062744140625,4.76924991607666,10.283096313476562,3.224989652633667
1728893620845072600,10.26807275390625,4.776432514190674,10.350133895874023,3.160346269607544
1728893620855051800,10.2780517578125,4.620809078216553,10.170568466186523,3.1483752727508545
1728893620865061600,10.2880615234375,4.778826713562012,10.340557098388672,2.829946517944336
1728893620875040800,10.298040771484375,5.420472621917725,10.429142951965332,2.806004285812378
1728893620885020000,10.30802001953125,5.568912982940674,10.309432983398438,2.583343744277954
1728893620894999300,10.317999267578125,5.722142219543457,10.127472877502441,2.298433542251587
1728893620905009200,10.328009033203125,5.710171222686768,9.708487510681152,1.9369091987609863
1728893620914988300,10.33798828125,4.965574264526367,9.129091262817383,1.4532804489135742
1728893620924998100,10.347998046875,4.841075897216797,8.372523307800293,1.3024457693099976
1728893620935007700,10.3580078125,4.874594688415527,8.04930591583252,1.601720929145813
1728893620945017600,10.368017578125,5.906495571136475,7.091625213623047,1.9919757843017578
1728893620954996700,10.377996826171875,6.399701118469238,8.480262756347656,2.564189910888672
1728893620964976000,10.38797607421875,4.699818134307861,8.24084186553955,3.1004912853240967
1728893620974955300,10.397955322265625,3.6559460163116455,8.53532886505127,3.3063924312591553
1728893620984934700,10.4079345703125,2.894589900970459,10.06043529510498,3.2537200450897217
1728893620994913800,10.417913818359375,3.222595453262329,11.099518775939941,3.157952070236206
1728893621004893200,10.42789306640625,3.5003228187561035,12.057199478149414,2.956839084625244
1728893621014872300,10.437872314453125,2.7246015071868896,11.889605522155762,2.911349296569824
1728893621024882200,10.447882080078125,1.8722656965255737,11.027692794799805,2.580949544906616
1728893621034891800,10.457891845703125,1.4987702369689941,10.225635528564453,2.0470423698425293
1728893621044901600,10.467901611328125,1.2066776752471924,9.682151794433594,2.3487119674682617
1728893621054880800,10.477880859375,1.01753568649292,8.724471092224121,2.583343744277954
1728893621064860200,10.487860107421875,1.5442601442337036,7.857769966125488,3.1483752727508545
1728893621074839300,10.49783935546875,2.382230758666992,6.955155849456787,3.428496837615967
1728893621084818700,10.507818603515625,3.1747114658355713,6.675034523010254,3.8091750144958496
1728893621094797800,10.5177978515625,3.936067581176758,6.557718276977539,3.9480385780334473
1728893621104807700,10.5278076171875,4.503493309020996,6.897695064544678,3.6846764087677
1728893621114817300,10.5378173828125,5.054159641265869,7.220912456512451,2.9951462745666504
1728893621124827100,10.5478271484375,4.9583916664123535,7.225700855255127,2.3989901542663574
1728893621134806500,10.557806640625,4.654327869415283,7.1490864753723145,1.9752163887023926
1728893621144785700,10.56778564453125,4.771644115447998,7.005434036254883,1.601720929145813
1728893621154764800,10.577764892578125,5.20978307723999,7.2113356590271,1.2737152576446533
1728893621164744200,10.587744140625,5.638344764709473,7.8098859786987305,1.1180921792984009
1728893621174723300,10.597723388671875,6.471527099609375,8.765172004699707,0.7924807667732239
1728893621184702700,10.60770263671875,6.746860504150391,9.586383819580078,0.7086837291717529
1728893621194681900,10.617681884765625,6.117185115814209,10.230423927307129,0.912190854549408
1728893621204661200,10.6276611328125,5.303156852722168,10.984597206115723,1.41257905960083
1728893621214640400,10.637640380859375,4.436455726623535,11.765107154846191,2.1164743900299072
1728893621224650200,10.647650146484375,3.512293815612793,12.09311294555664,2.604891538619995
1728893621234659800,10.657659912109375,2.4851813316345215,12.378023147583008,3.1028854846954346
1728893621244669700,10.667669677734375,1.778891921043396,12.227188110351562,3.2992098331451416
1728893621254648800,10.67764892578125,1.4987702369689941,11.736376762390137,3.4404678344726562
1728893621264658700,10.68765869140625,1.3910311460494995,9.856928825378418,3.1866824626922607
1728893621274607400,10.697607421875,1.699883222579956,8.343792915344238,3.227383852005005
1728893621284617200,10.7076171875,2.0398597717285156,7.802703380584717,3.423708438873291
1728893621294627000,10.717626953125,2.3056161403656006,8.034940719604492,3.620033025741577
1728893621304636700,10.72763671875,2.2361843585968018,8.738836288452148,3.7612907886505127
1728893621314616000,10.737615966796875,2.3798365592956543,8.796297073364258,3.6583402156829834
1728893621324625700,10.747625732421875,2.5953147411346436,8.667010307312012,3.6176388263702393
1728893621334605000,10.75760498046875,2.4660277366638184,8.71489429473877,3.8953661918640137
1728893621344584200,10.767584228515625,2.585737943649292,8.580819129943848,4.05817174911499
1728893621354563600,10.7775634765625,2.5977089405059814,8.38688850402832,4.371812343597412
1728893621364573200,10.7875732421875,2.832340717315674,8.152256965637207,4.003105163574219
1728893621374583000,10.7975830078125,2.2577321529388428,8.927978515625,2.9712042808532715
1728893621384593000,10.807593017578125,2.4803929328918457,10.584765434265137,2.9544448852539062
1728893621394602500,10.8176025390625,6.983886241912842,11.05402946472168,2.7533318996429443
1728893621404612400,10.8276123046875,10.079588890075684,13.400346755981445,4.764461517333984
1728893621414591500,10.837591552734375,3.687070608139038,11.580753326416016,2.80361008644104
1728893621424601300,10.847601318359375,1.2234370708465576,9.536105155944824,2.3487119674682617
1728893621434580500,10.85758056640625,-0.15562310814857483,9.84495735168457,3.00711727142334
1728893621444560000,10.867559814453125,-1.3479355573654175,10.673351287841797,3.780444383621216
1728893621454539000,10.8775390625,-4.788403511047363,12.483367919921875,4.8482584953308105
1728893621464518400,10.887518310546875,-10.735600471496582,13.61103630065918,5.736507415771484
1728893621474497500,10.89749755859375,-24.442405700683594,14.13057804107666,4.975151062011719
1728893621484477000,10.907476806640625,-16.326061248779297,10.924742698669434,2.5306711196899414
1728893621494456000,10.9174560546875,-9.59596061706543,9.306262016296387,4.067748546600342
1728893621504435200,10.927435302734375,-5.274426460266113,8.729259490966797,5.544970989227295
1728893621514414600,10.93741455078125,-2.3319525718688965,7.948749542236328,6.0621185302734375
1728893621524424400,10.947424560546875,-1.137245774269104,7.4555439949035645,5.796362400054932
1728893621534434000,10.95743408203125,-0.08858546614646912,7.316680431365967,5.772420406341553
1728893621544444000,10.96744384765625,1.1875240802764893,6.493074893951416,5.664681434631348
1728893621554423000,10.977423095703125,1.194706678390503,6.430825710296631,5.631162166595459
1728893621564402400,10.98740234375,0.9074024558067322,6.3949127197265625,5.348646640777588
1728893621574381600,10.997381591796875,0.586579442024231,6.205770969390869,4.922478675842285
1728893621584361000,11.00736083984375,0.4908113479614258,5.95677375793457,4.55616569519043
1728893621594340000,11.017340087890625,0.4141969084739685,5.674258232116699,4.223371982574463
1728893621604350000,11.027349853515625,0.3208230137825012,5.499481201171875,4.0294413566589355
1728893621614359600,11.037359619140625,0.2801215946674347,5.621585369110107,4.039018154144287
1728893621624369400,11.047369384765625,0.2825157940387726,6.004657745361328,4.230554580688477
1728893621634348500,11.0573486328125,0.2825157940387726,6.66785192489624,4.790797710418701
1728893621644328000,11.067327880859375,0.31364041566848755,7.089231014251709,5.363011837005615
1728893621654307000,11.07730712890625,0.5339069962501526,6.265625953674316,5.166687488555908
1728893621664317000,11.08731689453125,0.811634361743927,6.88332986831665,5.698200225830078
1728893621674265600,11.097265625,1.1994950771331787,7.386112213134766,6.01423454284668
1728893621684275500,11.107275390625,1.53707754611969,7.649474620819092,6.265625953674316
1728893621694254600,11.117254638671875,1.7812861204147339,7.285555839538574,6.124367713928223
1728893621704264400,11.127264404296875,1.9704279899597168,7.101202011108398,5.91128396987915
1728893621714274300,11.1372744140625,1.7573440074920654,8.635885238647461,6.94079065322876
1728893621724284000,11.147283935546875,1.4628572463989258,10.486603736877441,8.279149055480957
1728893621734263300,11.15726318359375,1.0462661981582642,11.81299114227295,9.167398452758789
1728893621744273000,11.16727294921875,0.5937620401382446,12.09550666809082,9.454702377319336
1728893621754252300,11.177252197265625,0.395043283700943,11.954249382019043,9.519346237182617
1728893621764262000,11.187261962890625,0.4884171485900879,11.702857971191406,9.536105155944824
1728893621774241300,11.1972412109375,0.8068459630012512,11.001357078552246,9.224859237670898
1728893621784220400,11.207220458984375,1.338358759880066,10.108319282531738,8.71728801727295
1728893621794230300,11.217230224609375,1.845929503440857,9.258378028869629,8.180987358093262
1728893621804209400,11.22720947265625,1.8770540952682495,8.607154846191406,7.675810813903809
1728893621814188800,11.237188720703125,1.556231141090393,7.864952564239502,6.94079065322876
1728893621824198400,11.247198486328125,1.2641384601593018,7.151480674743652,6.4834980964660645
1728893621834208300,11.257208251953125,1.0845733880996704,6.524199485778809,6.354211330413818
1728893621844218000,11.267218017578125,0.8978256583213806,6.030993938446045,6.323086738586426
1728893621854197200,11.277197265625,0.689530074596405,5.688623428344727,6.229712963104248
1728893621864176600,11.2871767578125,0.2537853717803955,5.492298603057861,6.00226354598999
1728893621874186200,11.297186279296875,0.3423708379268646,5.681440830230713,6.035782337188721
1728893621884165600,11.30716552734375,0.3519476354122162,5.681440830230713,5.971138954162598
1728893621894144800,11.317144775390625,0.26096799969673157,5.746084213256836,5.870582580566406
1728893621904154600,11.327154541015625,0.44771572947502136,5.676652431488037,5.815515995025635
1728893621914164200,11.337164306640625,0.42616790533065796,5.693411827087402,5.8657941818237305
1728893621924174000,11.347174072265625,0.5027823448181152,5.8203043937683105,5.784391403198242
1728893621934153200,11.3571533203125,0.4357447028160095,5.985504150390625,5.714959621429443
1728893621944163000,11.3671630859375,0.2777273952960968,6.224924564361572,5.746084213256836
1728893621954142500,11.377142578125,0.1867477297782898,6.481103897094727,5.748478412628174
1728893621964121600,11.38712158203125,-0.11971008777618408,6.825869083404541,5.817910194396973
1728893621974100700,11.397100830078125,-0.45010992884635925,7.242460250854492,6.169857978820801
1728893621984110600,11.407110595703125,-0.47165772318840027,7.565677165985107,6.358999729156494
1728893621994120400,11.417120361328125,-0.689530074596405,7.876923561096191,6.648698329925537
1728893622004099600,11.427099609375,-0.6584054827690125,7.838616371154785,6.794744491577148
1728893622014079000,11.437078857421875,-0.6919242739677429,7.738059997558594,6.732495307922363
1728893622024088600,11.447088623046875,-0.6248866319656372,7.728483200073242,6.710947513580322
1728893622034068000,11.45706787109375,-0.4644751250743866,7.5848307609558105,6.619967937469482
1728893622044077600,11.46707763671875,-0.4668693244457245,7.539340972900391,6.651092529296875
1728893622054087400,11.47708740234375,-0.33518823981285095,7.326257228851318,6.655880928039551
1728893622064097300,11.48709716796875,-0.30885201692581177,7.177816867828369,6.823474884033203
1728893622074076400,11.497076416015625,-0.2753331959247589,7.01979923248291,6.890512466430664
1728893622084086300,11.507086181640625,-0.24181437492370605,7.060500621795654,6.943184852600098
1728893622094096000,11.517095947265625,-0.3663128614425659,7.220912456512451,6.967126846313477
1728893622104075300,11.5270751953125,-0.3926490843296051,7.3023152351379395,6.988674640655518
1728893622114054400,11.537054443359375,-0.19871874153614044,7.395689010620117,7.038952827453613
1728893622124033800,11.54703369140625,-0.1173158809542656,7.560888767242432,7.180211067199707
1728893622134013000,11.557012939453125,0.1412578970193863,7.412448406219482,7.29034423828125
1728893622144022800,11.567022705078125,0.2298433631658554,7.29034423828125,7.479485988616943
1728893622154002000,11.577001953125,0.21787235140800476,7.0988078117370605,7.558494567871094
1728893622163981300,11.586981201171875,0.3232172429561615,6.943184852600098,7.592013359069824
1728893622173960400,11.59696044921875,0.4644751250743866,6.6630635261535645,7.465120792388916
1728893622183970300,11.60697021484375,0.5937620401382446,6.485892295837402,7.393294811248779
1728893622193949400,11.616949462890625,0.7230489253997803,6.476315498352051,7.3454108238220215
1728893622203959300,11.626959228515625,0.9217676520347595,6.478709697723389,7.252037048339844
1728893622213938400,11.6369384765625,1.036689281463623,6.567295074462891,7.194576263427734
1728893622223917800,11.646917724609375,1.1420341730117798,6.737283706665039,7.285555839538574
1728893622233927400,11.656927490234375,1.3958195447921753,6.842628479003906,7.3669586181640625
1728893622243937300,11.666937255859375,1.7812861204147339,6.947973251342773,7.2783732414245605
1728893622253916400,11.67691650390625,2.276885747909546,7.16584587097168,7.307103633880615
1728893622263926300,11.68692626953125,2.911349296569824,7.436390399932861,7.261613845825195
1728893622273905400,11.696905517578125,3.5649664402008057,7.7763671875,7.259219646453857
1728893622283915300,11.706915283203125,3.8762125968933105,7.848193168640137,7.173028469085693
1728893622293894700,11.716894775390625,4.371812343597412,7.692570209503174,7.175422668457031
1728893622303904300,11.726904296875,4.513070106506348,7.718906402587891,7.223306655883789
1728893622313883600,11.736883544921875,4.412513732910156,7.783549785614014,7.084442615509033
1728893622323862800,11.74686279296875,4.091690540313721,7.790732383728027,6.856993675231934
1728893622333842000,11.756842041015625,3.8091750144958496,7.762001991271973,6.600813865661621
1728893622343821300,11.7668212890625,3.533841609954834,7.711723804473877,6.380547523498535
1728893622353800400,11.776800537109375,3.2082302570343018,7.771578788757324,6.325480937957764
1728893622363779800,11.78677978515625,3.004723072052002,7.790732383728027,6.287173748016357
1728893622373759000,11.796759033203125,2.846705913543701,7.7763671875,6.3063273429870605
1728893622383768800,11.806768798828125,2.7964274883270264,7.888894557952881,6.411672115325928
1728893622393748000,11.816748046875,2.7988216876983643,8.068459510803223,6.509834289550781
1728893622403757800,11.8267578125,2.875436305999756,8.154650688171387,6.567295074462891
1728893622413737000,11.836737060546875,3.069366693496704,8.157045364379883,6.540958881378174
1728893622423746800,11.846746826171875,3.3207578659057617,8.243236541748047,6.426037311553955
1728893622433726200,11.856726318359375,3.6750996112823486,8.470685958862305,6.253654956817627
1728893622443705300,11.866705322265625,3.9911341667175293,8.650250434875488,6.071695327758789
1728893622453684500,11.8766845703125,4.1611223220825195,8.683769226074219,5.906495571136475
1728893622463663900,11.886663818359375,4.141968727111816,8.650250434875488,5.772420406341553
1728893622473643000,11.89664306640625,4.242525577545166,8.465897560119629,5.616796970367432
1728893622483622400,11.906622314453125,4.07014274597168,8.370129585266113,5.5114521980285645
1728893622493601500,11.9166015625,3.335123062133789,8.226476669311523,5.583278179168701
1728893622503611400,11.926611328125,2.7533318996429443,7.9415669441223145,5.60722017288208
1728893622513590500,11.936590576171875,2.1930887699127197,7.613561630249023,5.760449409484863
1728893622523600400,11.946600341796875,1.5753847360610962,7.462726593017578,5.918466567993164
1728893622533579500,11.95657958984375,1.137245774269104,7.42681360244751,6.1267619132995605
1728893622543589400,11.96658935546875,0.7996633648872375,7.340622425079346,6.210559368133545
1728893622553568500,11.976568603515625,0.6607996821403503,7.264008045196533,6.258443355560303
1728893622563578400,11.986578369140625,0.181959331035614,7.196970462799072,6.088454723358154
1728893622573557500,11.9965576171875,0.33039984107017517,7.273584842681885,6.229712963104248
1728893622583567400,12.0065673828125,-0.06224924325942993,7.201758861541748,6.2416839599609375
1728893622593546800,12.016546630859375,-0.4381389021873474,7.2568254470825195,6.064512729644775
1728893622603556400,12.026556396484375,-2.2194249629974365,7.146692276000977,5.846640586853027
1728893622613535700,12.03653564453125,-8.501810073852539,7.41484260559082,6.200982570648193
1728893622623515000,12.046514892578125,-12.112266540527344,7.726089000701904,6.184223175048828
1728893622633494300,12.056494384765625,-15.114595413208008,8.578424453735352,6.344634532928467
1728893622643503900,12.06650390625,-11.21204662322998,9.100360870361328,6.303933143615723
1728893622653513700,12.076513671875,-7.95832633972168,8.774748802185059,6.426037311553955
1728893622663554000,12.086553955078125,-4.474762916564941,8.26239013671875,6.414066314697266
1728893622673533200,12.096533203125,-2.8562827110290527,8.14028549194336,6.370970726013184
1728893622683512600,12.1065126953125,-1.821987509727478,7.9846625328063965,6.0836663246154785
1728893622693491700,12.11649169921875,-0.7326257228851318,7.955932140350342,5.559336185455322
1728893622703501600,12.12650146484375,0.038307227194309235,7.960720539093018,5.058948040008545
1728893622713480700,12.136480712890625,0.43335050344467163,7.934384346008301,4.666299343109131
1728893622723490600,12.146490478515625,0.7493851184844971,7.6566572189331055,4.316745758056641
1728893622733531000,12.15653076171875,0.8930372595787048,7.273584842681885,4.062960147857666
1728893622743540500,12.16654052734375,0.871489405632019,7.024587631225586,3.93367338180542
1728893622753519900,12.176519775390625,0.9193734526634216,6.8043212890625,3.866635799407959
1728893622763499000,12.1864990234375,1.0007762908935547,6.698976516723633,3.9695863723754883
1728893622773478400,12.196478515625,1.01753568649292,6.6391215324401855,4.165910720825195
1728893622783457500,12.20645751953125,0.8259995579719543,6.54574728012085,4.395754337310791
1728893622793436700,12.216436767578125,0.4668693244457245,6.524199485778809,4.596867084503174
1728893622803416000,12.226416015625,0.038307227194309235,6.562506675720215,4.759673118591309
1728893622813395200,12.236395263671875,-0.23702596127986908,6.5265936851501465,4.946420669555664
1728893622823374600,12.24637451171875,-0.646434485912323,6.567295074462891,5.020640850067139
1728893622833353700,12.256353759765625,-0.7948749661445618,6.5696892738342285,5.142745018005371
1728893622843333000,12.2663330078125,-0.7781155705451965,6.540958881378174,5.154716491699219
1728893622853312300,12.276312255859375,-0.5315127968788147,6.581660270690918,5.195417881011963
1728893622863291400,12.28629150390625,-0.395043283700943,6.722918510437012,5.1810526847839355
1728893622873270800,12.296270751953125,-0.05506663769483566,6.904877662658691,5.123591423034668
1728893622883280600,12.30628076171875,0.2585737705230713,7.070077419281006,5.154716491699219
1728893622893290200,12.316290283203125,0.47884035110473633,7.1490864753723145,5.07570743560791
1728893622903300000,12.326300048828125,0.6344634294509888,7.252037048339844,5.044582843780518
1728893622913279200,12.336279296875,0.7948749661445618,7.24485445022583,4.9583916664123535
1728893622923289000,12.3462890625,0.9026140570640564,7.201758861541748,4.8482584953308105
1728893622933299000,12.356298828125,1.1204863786697388,7.144298076629639,4.884171485900879
1728893622943308500,12.36630859375,1.4101848602294922,7.237671852111816,4.953603267669678
1728893622953318400,12.376318359375,1.6543933153152466,7.295132637023926,4.924872875213623
1728893622963297500,12.386297607421875,1.9632453918457031,7.412448406219482,4.90571928024292
1728893622973277000,12.39627685546875,2.207453966140747,7.565677165985107,5.008669853210449
1728893622983286500,12.40628662109375,2.492363929748535,7.501033782958984,5.04218864440918
1728893622993296400,12.41629638671875,2.6671407222747803,7.486668586730957,5.073313236236572
1728893623003306200,12.42630615234375,2.873042106628418,7.553706169128418,5.099649429321289
1728893623013315800,12.43631591796875,2.9017724990844727,7.675810813903809,5.097255229949951
1728893623023325700,12.44632568359375,2.873042106628418,7.812280178070068,5.135562419891357
1728893623033335600,12.45633544921875,2.892195701599121,7.7643961906433105,5.228936672210693
1728893623043345200,12.46634521484375,2.8395233154296875,7.69735860824585,5.315127849578857
1728893623053324500,12.476324462890625,2.827552318572998,7.558494567871094,5.3582234382629395
1728893623063334100,12.486334228515625,2.8155810832977295,7.453149795532227,5.389348030090332
1728893623073313500,12.4963134765625,2.650381326675415,7.503427982330322,5.420472621917725
1728893623083323100,12.5063232421875,2.513911724090576,7.532158374786377,5.5329999923706055
1728893623093302500,12.516302490234375,2.229001760482788,7.539340972900391,5.5545477867126465
1728893623103281700,12.52628173828125,1.920149803161621,7.599195957183838,5.56173038482666
1728893623113261000,12.536260986328125,1.6831238269805908,7.843404769897461,5.616796970367432
1728893623123270700,12.546270751953125,1.659181833267212,8.4108304977417,5.770026206970215
1728893623133280500,12.556280517578125,1.8626888990402222,9.095572471618652,5.995080947875977
1728893623143290400,12.566290283203125,2.0638017654418945,9.761159896850586,6.495469093322754
1728893623153300000,12.576300048828125,2.365471363067627,10.280701637268066,7.220912456512451
1728893623163309800,12.586309814453125,2.9879636764526367,10.948684692382812,8.286332130432129
1728893623173258500,12.596258544921875,3.60566782951355,11.939884185791016,9.775525093078613
1728893623183268400,12.606268310546875,4.302380561828613,12.385205268859863,11.54244613647461
1728893623193278200,12.6162783203125,2.609679937362671,11.489773750305176,12.655750274658203
1728893623203257300,12.62625732421875,-1.1180921792984009,10.005369186401367,12.792220115661621
1728893623213236500,12.636236572265625,-4.398148536682129,9.100360870361328,12.014103889465332
1728893623223215900,12.6462158203125,-6.098031520843506,8.798690795898438,10.491392135620117
1728893623233195000,12.656195068359375,-6.452373504638672,9.892841339111328,9.157821655273438
1728893623243174400,12.66617431640625,-5.700594425201416,11.590330123901367,8.765172004699707
1728893623253153500,12.676153564453125,-4.6255974769592285,11.104307174682617,8.329427719116211
1728893623263133000,12.6861328125,-3.2297780513763428,8.650250434875488,7.781155586242676
1728893623273112000,12.696112060546875,-1.7908629179000854,7.891288757324219,7.398083209991455
1728893623283091200,12.70609130859375,-0.5626373887062073,7.311892032623291,7.0557122230529785
1728893623293070600,12.716070556640625,0.06464344263076782,6.67982292175293,6.66785192489624
1728893623303080400,12.72608056640625,0.11252748221158981,6.402095317840576,6.497863292694092
1728893623313059600,12.7360595703125,-0.14604631066322327,6.358999729156494,6.347028732299805
1728893623323038700,12.746038818359375,-0.3974374830722809,6.335057735443115,6.277596950531006
1728893623333018000,12.75601806640625,-0.7110779285430908,6.270414352416992,6.246472358703613
1728893623343027700,12.76602783203125,-0.8882488012313843,6.138733386993408,6.19379997253418
1728893623353007000,12.776007080078125,-0.9217676520347595,5.980715751647949,6.1267619132995605
1728893623362986200,12.785986328125,-0.9409212470054626,5.942408561706543,6.088454723358154
1728893623372965600,12.795965576171875,-0.9002198576927185,5.985504150390625,6.050147533416748
1728893623382975200,12.805975341796875,-0.790086567401886,5.913678169250488,5.9304375648498535
1728893623392954600,12.81595458984375,-0.5482721924781799,5.801150798797607,5.789179801940918
1728893623402933800,12.825933837890625,-0.12210428714752197,5.6670756340026855,5.635950565338135
1728893623412913200,12.8359130859375,0.23942017555236816,5.659893035888672,5.499481201171875
1728893623422922800,12.8459228515625,0.45010992884635925,5.614402770996094,5.442020416259766
1728893623432932600,12.8559326171875,0.45250412821769714,5.621585369110107,5.374982833862305
1728893623442942500,12.8659423828125,0.395043283700943,5.585672378540039,5.336675643920898
1728893623452921600,12.875921630859375,0.2753331959247589,5.659893035888672,5.260061264038086
1728893623462901000,12.88590087890625,0.15562310814857483,5.652710437774658,5.2049946784973145
1728893623472880000,12.895880126953125,0.24660277366638184,5.621585369110107,5.212177276611328
1728893623482859300,12.905859375,0.21547815203666687,5.702988624572754,5.178658485412598
1728893623492838700,12.915838623046875,0.19632454216480255,5.803544998168945,5.154716491699219
1728893623502848500,12.9258486328125,-0.10534487664699554,6.007051944732666,5.178658485412598
1728893623512827600,12.93582763671875,0.1843535304069519,5.913678169250488,5.363011837005615
1728893623522806800,12.945806884765625,0.07182604819536209,6.155492782592773,5.489904403686523
1728893623532786200,12.9557861328125,0.040701430290937424,6.347028732299805,5.583278179168701
1728893623542796000,12.965796142578125,0.043095629662275314,6.509834289550781,5.614402770996094
1728893623552805600,12.9758056640625,0.15801730751991272,6.775590896606445,5.719748020172119
1728893623562815500,12.9858154296875,0.304063618183136,6.98628044128418,5.87776517868042
1728893623572794600,12.995794677734375,0.4429273009300232,7.16584587097168,6.023811340332031
1728893623582774000,13.00577392578125,0.5482721924781799,7.295132637023926,6.110002517700195
1728893623592753200,13.015753173828125,0.6799532771110535,7.3693528175354,6.246472358703613
