time,seconds_elapsed,z,y,x
1728743883788499500,0.13549951171875,10.077195167541504,2.47560453414917,-1.256955862045288
1728743883798478600,0.145478515625,10.122684478759766,2.454056739807129,-1.2018892765045166
1728743883808458000,0.1554580078125,10.067618370056152,2.4444799423217773,-1.1851298809051514
1728743883818437000,0.16543701171875,10.072406768798828,2.4875755310058594,-1.0869675874710083
1728743883828447000,0.175447021484375,10.02452278137207,2.5043349266052246,-0.9672574996948242
1728743883838456800,0.185456787109375,9.955090522766113,2.5043349266052246,-0.9074024558067322
1728743883848436000,0.19543603515625,9.919178009033203,2.513911724090576,-0.8379706144332886
1728743883858445800,0.20544580078125,9.9000244140625,2.516305923461914,-0.7374141216278076
1728743883868425000,0.215425048828125,9.911994934082031,2.4851813316345215,-0.6536170840263367
1728743883878434800,0.225434814453125,9.907206535339355,2.4396915435791016,-0.5961562395095825
1728743883888444400,0.2354443359375,9.821015357971191,2.3726539611816406,-0.5410895943641663
1728743883898454300,0.245454345703125,9.78989028930664,2.293645143508911,-0.4884171485900879
1728743883908433700,0.25543359375,9.655815124511719,2.1787235736846924,-0.40222588181495667
1728743883918412800,0.265412841796875,9.564835548400879,2.169146776199341,-0.2968810200691223
1728743883928392000,0.275391845703125,9.476250648498535,2.118868589401245,-0.19871874153614044
1728743883938401800,0.28540185546875,9.35893440246582,2.10210919380188,-0.1173158809542656
1728743883948381200,0.295381103515625,9.327810287475586,2.118868589401245,0.004788403399288654
1728743883958390800,0.305390869140625,9.296685218811035,2.097320795059204,0.0933738648891449
1728743883968370200,0.3153701171875,9.260771751403809,1.9728221893310547,0.12449848651885986
1728743883978379800,0.3253798828125,9.136273384094238,1.8602946996688843,0.07661445438861847
1728743883988328400,0.335328369140625,9.10993766784668,1.8746598958969116,0.07182604819536209
1728743883998338300,0.34533837890625,9.131484985351562,1.8818424940109253,0.12449848651885986
1728743884008348200,0.35534814453125,9.172186851501465,1.8818424940109253,0.19393034279346466
1728743884018327300,0.365327392578125,9.287108421325684,2.0015525817871094,0.2322375625371933
1728743884028306700,0.375306640625,9.502586364746094,2.073378562927246,0.31842881441116333
1728743884038316300,0.38531640625,9.646238327026367,2.0590133666992188,0.38067805767059326
1728743884048326100,0.395326171875,9.710882186889648,2.0614075660705566,0.3878606855869293
1728743884058305300,0.40530517578125,9.80904483795166,1.98958158493042,0.31603461503982544
1728743884068315100,0.415315185546875,9.849745750427246,1.843535304069519,0.26575639843940735
1728743884078325000,0.425324951171875,9.840168952941895,1.7693150043487549,0.22026655077934265
1728743884088304000,0.43530419921875,9.81143856048584,1.6496049165725708,0.14844051003456116
1728743884098283500,0.445283447265625,9.708487510681152,1.556231141090393,0.0933738648891449
1728743884108262700,0.4552626953125,9.655815124511719,1.5705963373184204,0.1149216815829277
1728743884118272500,0.4652724609375,9.703699111938477,1.5322890281677246,0.17238251864910126
1728743884128251600,0.475251708984375,9.739612579345703,1.4245500564575195,0.13407529890537262
1728743884138261500,0.485261474609375,9.785101890563965,1.3407529592514038,0.090979665517807
1728743884148240600,0.49524072265625,9.821015357971191,1.2713210582733154,0.07900865375995636
1728743884158250500,0.50525048828125,9.897629737854004,1.237802267074585,0.035913024097681046
1728743884168229600,0.515229736328125,9.983820915222168,1.2330138683319092,0.026336219161748886
1728743884178239500,0.525239501953125,10.04846477508545,1.3024457693099976,0.08379705995321274
1728743884188218600,0.535218505859375,10.072406768798828,1.3431471586227417,0.090979665517807
1728743884198228500,0.545228515625,10.108319282531738,1.3694833517074585,0.1149216815829277
1728743884208238300,0.55523828125,10.199298858642578,1.3239935636520386,0.009576806798577309
1728743884218248000,0.565248046875,10.309432983398438,1.237802267074585,-0.21308395266532898
1728743884228257800,0.5752578125,10.400412559509277,1.2066776752471924,-0.3926490843296051
1728743884238267600,0.585267578125,10.433931350708008,1.3096283674240112,-0.45250412821769714
1728743884248246800,0.595246826171875,10.400412559509277,1.5418659448623657,-0.43095630407333374
1728743884258226000,0.605225830078125,10.35252857208252,1.9057846069335938,-0.36152446269989014
1728743884268235800,0.61523583984375,10.32858657836914,2.212242364883423,-0.3280056416988373
1728743884278245600,0.62524560546875,10.199298858642578,2.4684219360351562,-0.2801215946674347
1728743884288255200,0.635255126953125,10.029311180114746,2.734178304672241,-0.1628057211637497
1728743884298265000,0.64526513671875,9.804255485534668,2.9472622871398926,0.009576806798577309
1728743884308244200,0.655244140625,9.435548782348633,2.2577321529388428,-0.047884032130241394
1728743884318223600,0.6652236328125,9.59835433959961,2.7940332889556885,0.05985504388809204
1728743884328202800,0.67520263671875,9.421183586120605,2.9879636764526367,0.05985504388809204
1728743884338212600,0.685212646484375,9.05487060546875,3.0406360626220703,-0.028730420395731926
1728743884348191700,0.695191650390625,8.772355079650879,2.9496564865112305,-0.05506663769483566
1728743884358171100,0.705171142578125,8.633491516113281,2.937685489654541,-0.07422025501728058
1728743884368211500,0.71521142578125,8.537723541259766,2.983175277709961,-0.05746084079146385
1728743884378190600,0.725190673828125,8.609549522399902,3.0190882682800293,-0.06703764945268631
1728743884388200400,0.735200439453125,8.542511940002441,3.1292216777801514,0.0071826050989329815
1728743884398210000,0.7452099609375,8.456320762634277,3.378218650817871,0.16759411990642548
1728743884408189400,0.755189453125,8.401253700256348,3.7253777980804443,0.29209262132644653
1728743884418199300,0.76519921875,8.492233276367188,4.0964789390563965,0.4572925269603729
1728743884428239400,0.7752392578125,8.655038833618164,4.323928356170654,0.3974374830722809
1728743884438218800,0.78521875,8.769960403442383,4.424484729766846,0.2059013396501541
1728743884448228400,0.795228271484375,8.803479194641113,4.398148536682129,0.05506663769483566
1728743884458238200,0.80523828125,8.83939266204834,4.177882194519043,-0.10055647045373917
1728743884468217600,0.815217529296875,8.746018409729004,3.9887399673461914,-0.21308395266532898
1728743884478227200,0.825227294921875,8.700529098510742,3.9240965843200684,-0.17717093229293823
1728743884488206600,0.83520654296875,8.609549522399902,3.864241600036621,-0.12210428714752197
1728743884498185700,0.845185791015625,8.559270858764648,3.8810009956359863,-0.17477671802043915
1728743884508165000,0.8551650390625,8.391676902770996,4.005499362945557,-0.14604631066322327
1728743884518144300,0.865144287109375,8.243236541748047,4.043806552886963,-0.10534487664699554
1728743884528123400,0.875123291015625,8.259995460510254,4.003105163574219,-0.14844051003456116
1728743884538102800,0.885102783203125,8.346187591552734,3.825934410095215,-0.2585737705230713
1728743884548082000,0.89508203125,8.542511940002441,3.3207578659057617,-0.47884035110473633
1728743884558061300,0.905061279296875,8.978256225585938,2.87064790725708,-0.6655880808830261
1728743884568040400,0.91504052734375,9.32302188873291,2.7437551021575928,-0.6368576288223267
1728743884578019800,0.925019775390625,9.57441234588623,2.7772738933563232,-0.5937620401382446
1728743884588029400,0.935029541015625,9.780313491821289,2.9496564865112305,-0.5626373887062073
1728743884598039300,0.945039306640625,9.849745750427246,3.378218650817871,-0.5147533416748047
1728743884608018400,0.955018310546875,9.955090522766113,4.050989151000977,-0.5003881454467773
1728743884618028300,0.9650283203125,10.074800491333008,4.716577529907227,-0.6416460275650024
1728743884628007400,0.97500732421875,10.390835762023926,4.596867084503174,-0.8403648138046265
1728743884638017300,0.985017333984375,10.273519515991211,4.110844135284424,-1.2066776752471924
1728743884647996400,0.994996337890625,10.244789123535156,3.488351821899414,-1.338358759880066
1728743884658006300,1.00500634765625,10.316615104675293,2.87064790725708,-1.3527239561080933
1728743884668016000,1.01501611328125,10.134655952453613,2.4468741416931152,-1.4676456451416016
1728743884678025700,1.025025634765625,10.196905136108398,2.1811177730560303,-1.2186486721038818
1728743884688035600,1.03503564453125,9.780313491821289,2.1547815799713135,-0.9696516990661621
1728743884698014700,1.0450146484375,9.421183586120605,1.4939818382263184,-0.8331822156906128
1728743884708024600,1.055024658203125,9.165003776550293,1.9823989868164062,-0.7038952708244324
1728743884718004000,1.06500390625,9.224859237670898,3.426102638244629,-0.3064578175544739
1728743884728013600,1.075013671875,9.205705642700195,4.2760443687438965,-0.12449848651885986
1728743884737993000,1.084992919921875,9.311050415039062,4.414907932281494,-0.3256114423274994
1728743884748002600,1.09500244140625,9.430760383605957,3.9264907836914062,-0.7469909191131592
1728743884757982000,1.10498193359375,9.612719535827637,3.184288263320923,-1.0319008827209473
1728743884767991600,1.114991455078125,9.68933391571045,2.5977089405059814,-1.2234370708465576
1728743884777971000,1.124970947265625,9.701305389404297,2.319981336593628,-1.3838485479354858
1728743884787950000,1.1349501953125,9.679757118225098,2.38462495803833,-1.3072341680526733
1728743884797929500,1.144929443359375,9.57201862335205,2.7317841053009033,-1.1994950771331787
1728743884807939000,1.15493896484375,9.390059471130371,3.1100680828094482,-1.0055646896362305
1728743884817918500,1.16491845703125,9.045293807983398,3.4787750244140625,-0.6799532771110535
1728743884827897600,1.174897705078125,9.02135181427002,3.732560396194458,-0.3974374830722809
1728743884837907500,1.184907470703125,9.32541561126709,3.7900211811065674,-0.363918662071228
1728743884847886600,1.194886474609375,9.464279174804688,3.3662476539611816,-0.6440402865409851
1728743884857896400,1.204896484375,9.512163162231445,2.9161376953125,-0.8259995579719543
1728743884867875600,1.21487548828125,9.500192642211914,2.9233202934265137,-0.8571242094039917
1728743884877855000,1.22485498046875,9.500192642211914,2.8155810832977295,-0.7469909191131592
1728743884887864600,1.234864501953125,9.320627212524414,2.382230758666992,-0.6943184733390808
1728743884897874400,1.24487451171875,9.296685218811035,1.8770540952682495,-0.507570743560791
1728743884907884300,1.25488427734375,9.627084732055664,2.008735179901123,-0.2849099934101105
1728743884917863400,1.264863525390625,9.653421401977539,2.6192567348480225,-0.028730420395731926
1728743884927842800,1.2748427734375,9.794678688049316,3.7158010005950928,0.0933738648891449
1728743884937822000,1.284822021484375,10.038887977600098,4.240131378173828,-0.028730420395731926
1728743884947831800,1.294831787109375,10.11550235748291,3.7684733867645264,-0.3471592366695404
1728743884957841400,1.30484130859375,10.031704902648926,3.1316158771514893,-0.706289529800415
1728743884967820800,1.31482080078125,9.914389610290527,2.647987127304077,-0.7852981686592102
1728743884977830400,1.324830322265625,9.730035781860352,2.5785553455352783,-0.849941611289978
1728743884987809800,1.334809814453125,9.75637149810791,2.7485435009002686,-0.6416460275650024
1728743884997789000,1.344788818359375,9.742006301879883,2.9065608978271484,-0.6919242739677429
1728743885007798800,1.354798828125,9.560047149658203,2.801215887069702,-0.9457096457481384
1728743885017808600,1.36480859375,9.35654067993164,2.736572504043579,-1.1516109704971313
1728743885027818200,1.374818359375,9.133879661560059,2.7772738933563232,-1.1755530834197998
1728743885037828000,1.384828125,8.769960403442383,2.964021682739258,-1.1492167711257935
1728743885047807200,1.39480712890625,8.7484130859375,3.1052796840667725,-1.1109095811843872
1728743885057786600,1.40478662109375,8.130708694458008,2.9305028915405273,-1.1204863786697388
1728743885067765800,1.414765869140625,7.824251174926758,2.691082715988159,-1.0534487962722778
1728743885077775600,1.424775634765625,8.157045364379883,2.343923568725586,-0.9720458984375
1728743885087724300,1.434724365234375,8.738836288452148,1.987187385559082,-1.1635819673538208
1728743885097734100,1.444734130859375,9.59835433959961,2.027888774871826,-1.1755530834197998
1728743885107713300,1.45471337890625,10.113107681274414,2.2409727573394775,-0.8643068075180054
1728743885117692700,1.464692626953125,9.880870819091797,2.5498247146606445,-0.5195417404174805
1728743885127671800,1.474671875,9.684545516967773,2.715024709701538,-0.1388636976480484
1728743885137681700,1.484681640625,9.919178009033203,2.873042106628418,0.3519476354122162
1728743885147691300,1.494691162109375,10.014945983886719,2.8658595085144043,0.38307225704193115
1728743885157670700,1.504670654296875,10.137049674987793,2.408566951751709,0.014365210197865963
1728743885167680300,1.51468017578125,10.029311180114746,1.889025092124939,-0.5099649429321289
1728743885177690000,1.524690185546875,9.47146224975586,1.8722656965255737,-0.6991068720817566
1728743885187669500,1.53466943359375,8.87051773071289,2.2409727573394775,-0.7709329724311829
1728743885197648600,1.544648681640625,8.676587104797363,2.5929205417633057,-0.849941611289978
1728743885207627800,1.554627685546875,8.497021675109863,2.9017724990844727,-0.7948749661445618
1728743885217637600,1.5646376953125,8.757989883422852,3.1244332790374756,-0.8355764150619507
1728743885227616800,1.57461669921875,9.289502143859863,3.0334534645080566,-0.8164227604866028
1728743885237626600,1.584626708984375,9.5624418258667,2.583343744277954,-0.7876923680305481
1728743885247606000,1.59460595703125,9.821015357971191,2.2673089504241943,-0.871489405632019
1728743885257585200,1.604585205078125,10.079588890075684,2.542642116546631,-0.9385270476341248
1728743885267564300,1.614564208984375,10.199298858642578,2.7533318996429443,-1.3311761617660522
1728743885277574100,1.62457421875,10.27591323852539,2.4229321479797363,-1.4915876388549805
1728743885287553500,1.634553466796875,10.055646896362305,2.2601263523101807,-1.3215993642807007
1728743885297532700,1.64453271484375,9.854534149169922,2.3535003662109375,-0.8619126081466675
1728743885307542500,1.65454248046875,9.548076629638672,2.786850690841675,-0.3734954595565796
1728743885317552000,1.66455224609375,9.373299598693848,3.5194764137268066,-0.1843535304069519
1728743885327531500,1.674531494140625,9.59835433959961,3.531447410583496,-0.6584054827690125
1728743885337510700,1.6845107421875,9.892841339111328,2.892195701599121,-1.6735470294952393
1728743885347490000,1.694489990234375,10.211270332336426,2.5330653190612793,-1.845929503440857
1728743885357469200,1.70446923828125,10.594342231750488,2.0183119773864746,-2.1140801906585693
1728743885367479000,1.71447900390625,10.11550235748291,2.250549554824829,-2.013523578643799
1728743885377488600,1.724488525390625,9.639056205749512,3.1651346683502197,-1.414973258972168
1728743885387498500,1.73449853515625,9.399636268615723,3.624821424484253,-0.8667010068893433
1728743885397508400,1.74450830078125,9.239224433898926,3.5649664402008057,-0.7924807667732239
1728743885407487500,1.754487548828125,9.366117477416992,3.3662476539611816,-0.9648633003234863
1728743885417466600,1.764466552734375,9.502586364746094,3.4332852363586426,-1.113303780555725
1728743885427446000,1.774446044921875,9.461885452270508,3.864241600036621,-1.2761094570159912
1728743885437425200,1.784425048828125,9.720458984375,4.388571739196777,-1.2832920551300049
1728743885447404500,1.794404541015625,9.847352027893066,4.441244125366211,-1.6424223184585571
1728743885457383700,1.8043837890625,10.302249908447266,3.7421371936798096,-2.559401512145996
1728743885467363000,1.814363037109375,11.475408554077148,2.849100112915039,-3.2968156337738037
1728743885477342200,1.82434228515625,11.925518989562988,2.4420857429504395,-3.9217023849487305
1728743885487352000,1.83435205078125,12.191274642944336,2.0446481704711914,-4.165910720825195
1728743885497361700,1.844361572265625,12.1194486618042,1.9057846069335938,-3.7493197917938232
1728743885507341000,1.854341064453125,11.726799964904785,1.7621324062347412,-2.832340717315674
1728743885517350700,1.8643505859375,10.991780281066895,1.6328455209732056,-1.9800047874450684
1728743885527330000,1.874330078125,10.005369186401367,1.1803414821624756,-1.4221558570861816
1728743885537309200,1.88430908203125,9.042900085449219,0.6248866319656372,-1.0989385843276978
1728743885547288600,1.89428857421875,8.44434928894043,0.689530074596405,-0.6512228846549988
1728743885557267700,1.904267822265625,8.271966934204102,1.8770540952682495,-0.17956513166427612
1728743885567247000,1.9142470703125,8.233659744262695,2.7461493015289307,-0.014365210197865963
1728743885577256700,1.924256591796875,8.678980827331543,2.5546131134033203,0.05027823522686958
1728743885587236000,1.934236083984375,8.702922821044922,2.7892448902130127,0.08619125932455063
1728743885597215200,1.94421533203125,8.518569946289062,3.1052796840667725,-0.14604631066322327
1728743885607225000,1.95422509765625,8.178592681884766,2.999934673309326,-0.7134721279144287
1728743885617204200,1.964204345703125,8.188169479370117,2.6408045291900635,-1.137245774269104
1728743885627183600,1.97418359375,8.508993148803711,2.31758713722229,-1.3958195447921753
1728743885637162800,1.984162841796875,8.908824920654297,2.3989901542663574,-1.4652514457702637
1728743885647172600,1.994172607421875,9.141061782836914,2.87064790725708,-1.2186486721038818
1728743885657182200,2.00418212890625,9.402029991149902,3.335123062133789,-0.9481038451194763
1728743885667161600,2.01416162109375,9.536105155944824,3.6320040225982666,-0.8379706144332886
1728743885677171500,2.02417138671875,9.667786598205566,3.952826976776123,-0.6129156351089478
1728743885687150600,2.034150634765625,9.682151794433594,4.110844135284424,-0.43335050344467163
1728743885697160400,2.044160400390625,9.440337181091309,4.091690540313721,-0.5339069962501526
1728743885707139600,2.0541396484375,9.191340446472168,3.847482204437256,-0.6727706789970398
1728743885717149400,2.0641494140625,8.937555313110352,3.624821424484253,-0.7350199222564697
1728743885727128600,2.074128662109375,8.801085472106934,3.464409828186035,-0.6919242739677429
1728743885737138400,2.084138427734375,8.722076416015625,3.2848446369171143,-0.6512228846549988
1728743885747117600,2.09411767578125,8.669404029846191,3.181894063949585,-0.48602294921875
1728743885757097000,2.104096923828125,8.633491516113281,3.179499864578247,-0.2585737705230713
1728743885767076000,2.114076171875,8.588001251220703,3.157952070236206,-0.10534487664699554
1728743885777086000,2.1240859375,8.647856712341309,3.1004912853240967,-0.023942016065120697
1728743885787065000,2.134065185546875,8.774748802185059,3.177105665206909,0.19871874153614044
1728743885797075000,2.144074951171875,8.81784439086914,3.1938650608062744,0.3208230137825012
1728743885807054000,2.15405419921875,8.860940933227539,3.1914708614349365,0.3280056416988373
1728743885817033500,2.164033447265625,9.057265281677246,3.203441858291626,0.35673606395721436
1728743885827043000,2.17404296875,9.334992408752441,3.1723172664642334,0.33039984107017517
1728743885837053000,2.184052978515625,9.53849983215332,2.9975404739379883,0.17238251864910126
1728743885847032000,2.194031982421875,9.739612579345703,2.7509377002716064,-0.035913024097681046
1728743885857011500,2.204011474609375,9.832986831665039,2.58813214302063,-0.1867477297782898
1728743885866990600,2.213990478515625,9.825803756713867,2.5905263423919678,-0.22744916379451752
1728743885876970000,2.223969970703125,9.876082420349121,2.628833532333374,-0.16519992053508759
1728743885886979600,2.2339794921875,9.785101890563965,2.7269957065582275,-0.17956513166427612
1728743885896989400,2.243989501953125,9.696516990661621,2.849100112915039,-0.1867477297782898
1728743885906999300,2.253999267578125,9.746794700622559,2.9281086921691895,-0.181959331035614
1728743885917009000,2.2640087890625,9.909601211547852,2.851494312286377,-0.20350714027881622
1728743885926988300,2.27398828125,10.017339706420898,2.7126305103302,-0.3519476354122162
1728743885936967400,2.283967529296875,10.034099578857422,2.5761611461639404,-0.47644615173339844
1728743885946946800,2.29394677734375,10.091560363769531,2.4660277366638184,-0.5099649429321289
1728743885956926000,2.303926025390625,10.11550235748291,2.367865562438965,-0.5602431893348694
1728743885966935800,2.313935791015625,10.108319282531738,2.27209734916687,-0.5482721924781799
1728743885976945400,2.3239453125,10.014945983886719,2.2146365642547607,-0.507570743560791
1728743885986924800,2.3339248046875,9.854534149169922,2.145204782485962,-0.4812345504760742
1728743885996904000,2.343904052734375,9.703699111938477,2.0925323963165283,-0.4884171485900879
1728743886006883300,2.35388330078125,9.478644371032715,2.0901381969451904,-0.4668693244457245
1728743886016862500,2.363862548828125,9.35893440246582,2.1811177730560303,-0.40222588181495667
1728743886026872300,2.373872314453125,9.227252960205078,2.3295583724975586,-0.3064578175544739
1728743886036882000,2.3838818359375,9.057265281677246,2.5258827209472656,-0.22505496442317963
1728743886046861300,2.393861328125,8.868123054504395,2.760514497756958,-0.15562310814857483
1728743886056871200,2.40387109375,8.813055992126465,3.0095114707946777,-0.12210428714752197
1728743886066911200,2.4139111328125,8.791508674621582,3.248931646347046,-0.06224924325942993
1728743886076921000,2.423921142578125,8.935160636901855,3.313575267791748,-0.10055647045373917
1728743886086900200,2.433900146484375,9.107542991638184,3.1890766620635986,-0.26815059781074524
1728743886096910000,2.44391015625,9.282320022583008,3.043030261993408,-0.4189853072166443
1728743886106889500,2.453889404296875,9.531316757202148,2.96162748336792,-0.524330198764801
1728743886116838100,2.463838134765625,9.651026725769043,2.9520506858825684,-0.5410895943641663
1728743886126817300,2.4738173828125,9.734824180603027,2.918531894683838,-0.6057330369949341
1728743886136766000,2.483765869140625,9.677363395690918,2.875436305999756,-0.6967126727104187
1728743886146806300,2.49380615234375,9.610325813293457,2.956839084625244,-0.667982280254364
1728743886156785700,2.50378564453125,9.555258750915527,3.0885202884674072,-0.5985504388809204
1728743886166795300,2.513795166015625,9.437943458557129,3.2800562381744385,-0.4644751250743866
1728743886176805000,2.52380517578125,9.35893440246582,3.3901896476745605,-0.35673606395721436
1728743886186815000,2.53381494140625,9.229647636413574,3.378218650817871,-0.3711012601852417
1728743886196824600,2.543824462890625,9.081207275390625,3.3207578659057617,-0.42616790533065796
1728743886206804000,2.553803955078125,9.01895809173584,3.2609026432037354,-0.4572925269603729
1728743886216783000,2.563783203125,9.074024200439453,3.2154128551483154,-0.45250412821769714
1728743886226762500,2.573762451171875,9.186552047729492,3.2417490482330322,-0.43095630407333374
1728743886236772000,2.583772216796875,9.38048267364502,3.24414324760437,-0.3687070608139038
1728743886246751500,2.59375146484375,9.488221168518066,3.287238836288452,-0.36152446269989014
1728743886256730600,2.603730712890625,9.612719535827637,3.354276657104492,-0.2849099934101105
1728743886266771000,2.61377099609375,9.720458984375,3.380612850189209,-0.26815059781074524
1728743886276750000,2.62375,9.813833236694336,3.318363666534424,-0.26096799969673157
1728743886286760000,2.633760009765625,9.818621635437012,3.181894063949585,-0.304063618183136
1728743886296739300,2.6437392578125,9.701305389404297,3.093308687210083,-0.3711012601852417
1728743886306779400,2.653779296875,9.557653427124023,3.0334534645080566,-0.3471592366695404
1728743886316758800,2.6637587890625,9.387664794921875,3.0358476638793945,-0.31603461503982544
1728743886326768400,2.673768310546875,9.198522567749023,3.023876667022705,-0.3016694188117981
1728743886336778200,2.6837783203125,9.133879661560059,3.0142998695373535,-0.2968810200691223
1728743886346818600,2.693818603515625,9.131484985351562,3.0190882682800293,-0.3232172429561615
1728743886356797700,2.703797607421875,9.148244857788086,2.9688100814819336,-0.3495534360408783
1728743886366807600,2.7138076171875,9.14345645904541,2.9281086921691895,-0.3974374830722809
1728743886376817400,2.7238173828125,9.222464561462402,2.8778305053710938,-0.4189853072166443
1728743886386827000,2.733826904296875,9.260771751403809,2.8203697204589844,-0.47884035110473633
1728743886396836900,2.7438369140625,9.315838813781738,2.80361008644104,-0.5123591423034668
1728743886406846700,2.7538466796875,9.421183586120605,2.765302896499634,-0.5482721924781799
1728743886416856300,2.763856201171875,9.493009567260742,2.7293899059295654,-0.6033388376235962
1728743886426866200,2.7738662109375,9.528923034667969,2.6671407222747803,-0.6655880808830261
1728743886436845300,2.78384521484375,9.526528358459473,2.6791117191314697,-0.7038952708244324
1728743886446824700,2.79382470703125,9.50498104095459,2.7676970958709717,-0.6631938815116882
1728743886456803800,2.803803955078125,9.485827445983887,2.8993782997131348,-0.6536170840263367
1728743886466783200,2.813783203125,9.48343276977539,2.985569477081299,-0.646434485912323
1728743886476792800,2.823792724609375,9.445125579833984,3.0334534645080566,-0.6967126727104187
1728743886486772200,2.833772216796875,9.409213066101074,3.0837318897247314,-0.7445967197418213
1728743886496781800,2.84378173828125,9.454702377319336,3.138798475265503,-0.7374141216278076
1728743886506761200,2.85376123046875,9.567230224609375,3.1651346683502197,-0.7445967197418213
1728743886516740400,2.863740234375,9.646238327026367,3.1220390796661377,-0.768538773059845
1728743886526780700,2.87378076171875,9.730035781860352,3.0861260890960693,-0.768538773059845
1728743886536760000,2.883760009765625,9.72285270690918,3.1004912853240967,-0.7637503147125244
1728743886546769700,2.893769775390625,9.708487510681152,3.1076738834381104,-0.7254431247711182
1728743886556779500,2.903779541015625,9.710882186889648,3.138798475265503,-0.6799532771110535
1728743886566789400,2.913789306640625,9.651026725769043,3.1531636714935303,-0.6200982332229614
1728743886576799000,2.923799072265625,9.526528358459473,3.201047658920288,-0.5793967843055725
1728743886586839300,2.93383935546875,9.459490776062012,3.2537200450897217,-0.4908113479614258
1728743886596849200,2.94384912109375,9.488221168518066,3.2585084438323975,-0.4189853072166443
1728743886606797800,2.9537978515625,9.521739959716797,3.2154128551483154,-0.40940847992897034
1728743886616807700,2.9638076171875,9.622296333312988,3.0789434909820557,-0.395043283700943
1728743886626786800,2.973786865234375,9.715670585632324,2.894589900970459,-0.4644751250743866
1728743886636796700,2.983796630859375,9.773131370544434,2.7461493015289307,-0.49799394607543945
1728743886646806300,2.99380615234375,9.725247383117676,2.652775526046753,-0.5051765441894531
1728743886656785700,3.00378564453125,9.57441234588623,2.6192567348480225,-0.5099649429321289
1728743886666764800,3.013764892578125,9.442731857299805,2.626439332962036,-0.3902548849582672
1728743886676744200,3.023744140625,9.330204010009766,2.691082715988159,-0.30885201692581177
1728743886686753800,3.03375390625,9.272743225097656,2.762908697128296,-0.2298433631658554
1728743886696763600,3.043763671875,9.21288776397705,2.8371291160583496,-0.22266076505184174
1728743886706742800,3.05374267578125,9.210494041442871,2.8658595085144043,-0.2513911724090576
1728743886716722200,3.06372216796875,9.32302188873291,2.8850131034851074,-0.272938996553421
1728743886726731800,3.073731689453125,9.41639518737793,2.875436305999756,-0.31364041566848755
1728743886736711200,3.083711181640625,9.531316757202148,2.8371291160583496,-0.36152446269989014
1728743886746721000,3.093720947265625,9.591172218322754,2.8227639198303223,-0.38307225704193115
1728743886756730600,3.103730712890625,9.612719535827637,2.8874073028564453,-0.38067805767059326
1728743886766710000,3.1137099609375,9.583989143371582,2.9328970909118652,-0.3471592366695404
1728743886776719600,3.1237197265625,9.512163162231445,2.985569477081299,-0.33997663855552673
1728743886786699000,3.133698974609375,9.442731857299805,3.064578056335449,-0.2992752194404602
1728743886796708600,3.14370849609375,9.27034854888916,3.1100680828094482,-0.3471592366695404
1728743886806688000,3.15368798828125,9.131484985351562,3.0861260890960693,-0.4429273009300232
1728743886816667100,3.163667236328125,9.08838939666748,3.021482467651367,-0.5195417404174805
1728743886826677000,3.173677001953125,9.102754592895508,3.004723072052002,-0.5913678407669067
1728743886836656000,3.18365625,9.172186851501465,3.0382418632507324,-0.6105214357376099
1728743886846666000,3.193666015625,9.27034854888916,3.004723072052002,-0.6248866319656372
1728743886856675800,3.20367578125,9.32541561126709,2.9472622871398926,-0.6416460275650024
1728743886866655000,3.213655029296875,9.397241592407227,2.9520506858825684,-0.6057330369949341
1728743886876634000,3.223634033203125,9.433155059814453,2.9257144927978516,-0.6177040338516235
1728743886886644000,3.23364404296875,9.512163162231445,2.942473888397217,-0.5746083855628967
1728743886896653800,3.24365380859375,9.615114212036133,3.0190882682800293,-0.5099649429321289
1728743886906633000,3.253633056640625,9.734824180603027,3.0334534645080566,-0.4644751250743866
1728743886916642800,3.263642822265625,9.775525093078613,3.026270866394043,-0.4357447028160095
1728743886926622000,3.2736220703125,9.742006301879883,2.978386878967285,-0.4429273009300232
1728743886936631800,3.2836318359375,9.708487510681152,2.9161376953125,-0.45489832758903503
1728743886946611000,3.29361083984375,9.641449928283691,2.8107926845550537,-0.524330198764801
1728743886956590300,3.30359033203125,9.516951560974121,2.736572504043579,-0.5650315880775452
1728743886966569500,3.313569580078125,9.361329078674316,2.719813108444214,-0.5506663918495178
1728743886976579300,3.323579345703125,9.284713745117188,2.7748796939849854,-0.524330198764801
1728743886986558500,3.333558349609375,9.260771751403809,2.827552318572998,-0.4644751250743866
1728743886996568300,3.343568359375,9.32302188873291,2.9065608978271484,-0.4357447028160095
1728743887006578200,3.353578125,9.370905876159668,2.9544448852539062,-0.4118026793003082
1728743887016587800,3.363587890625,9.493009567260742,2.9712042808532715,-0.42856210470199585
1728743887026567200,3.373567138671875,9.622296333312988,2.894589900970459,-0.4668693244457245
1728743887036546300,3.38354638671875,9.679757118225098,2.853888511657715,-0.5195417404174805
1728743887046525700,3.393525634765625,9.658209800720215,2.849100112915039,-0.5363011956214905
1728743887056535300,3.403535400390625,9.603142738342285,2.8658595085144043,-0.5626373887062073
1728743887066545200,3.413545166015625,9.478644371032715,2.911349296569824,-0.5363011956214905
1728743887076555000,3.423554931640625,9.334992408752441,2.9281086921691895,-0.5482721924781799
1728743887086564600,3.433564697265625,9.265560150146484,2.9520506858825684,-0.5626373887062073
1728743887096544000,3.4435439453125,9.32302188873291,3.0573954582214355,-0.5363011956214905
1728743887106553600,3.4535537109375,9.337387084960938,3.090914487838745,-0.5339069962501526
1728743887116563500,3.4635634765625,9.332598686218262,3.045424461364746,-0.6057330369949341
1728743887126573300,3.4735732421875,9.373299598693848,2.9712042808532715,-0.6200982332229614
1728743887136583000,3.4835830078125,9.435548782348633,2.935291290283203,-0.6200982332229614
1728743887146562300,3.493562255859375,9.512163162231445,2.9544448852539062,-0.5961562395095825
1728743887156541400,3.50354150390625,9.583989143371582,2.983175277709961,-0.5339069962501526
1728743887166551300,3.51355126953125,9.59835433959961,3.0142998695373535,-0.5219359993934631
1728743887176561000,3.523560791015625,9.624691009521484,3.002328872680664,-0.5291185975074768
1728743887186570800,3.53357080078125,9.655815124511719,2.9927520751953125,-0.5578489899635315
1728743887196580600,3.54358056640625,9.672574996948242,2.935291290283203,-0.6009446382522583
1728743887206559700,3.553559814453125,9.72285270690918,2.8131868839263916,-0.6607996821403503
1728743887216569600,3.563569580078125,9.658209800720215,2.7437551021575928,-0.7086837291717529
1728743887226579200,3.5735791015625,9.5408935546875,2.7676970958709717,-0.6751648783683777
1728743887236589000,3.583589111328125,9.440337181091309,2.8443117141723633,-0.6177040338516235
1728743887246568200,3.593568115234375,9.313444137573242,2.892195701599121,-0.5722141861915588
1728743887256547600,3.603547607421875,9.255983352661133,2.9257144927978516,-0.5626373887062073
1728743887266526700,3.613526611328125,9.299078941345215,2.873042106628418,-0.5985504388809204
1728743887276536600,3.62353662109375,9.370905876159668,2.7916390895843506,-0.6368576288223267
1728743887286546400,3.63354638671875,9.445125579833984,2.7437551021575928,-0.6919242739677429
1728743887296556000,3.64355615234375,9.469067573547363,2.7006595134735107,-0.7374141216278076
1728743887306566000,3.65356591796875,9.418789863586426,2.6839001178741455,-0.7565677165985107
1728743887316575700,3.66357568359375,9.397241592407227,2.7126305103302,-0.7637503147125244
1728743887326585300,3.67358544921875,9.38048267364502,2.782062292098999,-0.7350199222564697
1728743887336564700,3.683564697265625,9.351752281188965,2.8634653091430664,-0.7206547260284424
1728743887346574300,3.69357421875,9.315838813781738,2.9328970909118652,-0.7182605266571045
1728743887356584200,3.703584228515625,9.327810287475586,2.999934673309326,-0.7254431247711182
1728743887366594000,3.713593994140625,9.418789863586426,3.0526070594787598,-0.730231523513794
1728743887376603600,3.723603759765625,9.50737476348877,3.071760892868042,-0.7541735172271729
1728743887386583000,3.7335830078125,9.579200744628906,3.0813376903533936,-0.7924807667732239
1728743887396562200,3.743562255859375,9.68694019317627,3.0597896575927734,-0.7781155705451965
1728743887406572000,3.753572021484375,9.763554573059082,3.0334534645080566,-0.8092401623725891
1728743887416581600,3.76358154296875,9.78989028930664,3.00711727142334,-0.7805097699165344
1728743887426591500,3.773591552734375,9.732429504394531,2.9951462745666504,-0.7541735172271729
1728743887436571000,3.78357080078125,9.667786598205566,2.9927520751953125,-0.7038952708244324
1728743887446580500,3.79358056640625,9.605537414550781,2.983175277709961,-0.6584054827690125
1728743887456590300,3.80359033203125,9.533711433410645,2.9472622871398926,-0.6320692300796509
1728743887466569500,3.813569580078125,9.552865028381348,2.937685489654541,-0.6009446382522583
1728743887476548900,3.823548828125,9.63187313079834,2.875436305999756,-0.586579442024231
1728743887486528000,3.833528076171875,9.68694019317627,2.8347349166870117,-0.6129156351089478
1728743887496507400,3.84350732421875,9.6989107131958,2.806004285812378,-0.5985504388809204
1728743887506517000,3.85351708984375,9.715670585632324,2.7940332889556885,-0.569819986820221
1728743887516526800,3.86352685546875,9.72285270690918,2.7748796939849854,-0.5506663918495178
1728743887526536400,3.873536376953125,9.72285270690918,2.7437551021575928,-0.5722141861915588
1728743887536546300,3.88354638671875,9.679757118225098,2.695871114730835,-0.5793967843055725
1728743887546525700,3.893525634765625,9.672574996948242,2.6384103298187256,-0.5985504388809204
1728743887556535300,3.903535400390625,9.605537414550781,2.5953147411346436,-0.6129156351089478
1728743887566545200,3.913545166015625,9.57441234588623,2.5977089405059814,-0.6177040338516235
1728743887576524300,3.923524169921875,9.552865028381348,2.626439332962036,-0.5889736413955688
1728743887586534100,3.9335341796875,9.485827445983887,2.671929121017456,-0.5578489899635315
1728743887596544000,3.9435439453125,9.406818389892578,2.691082715988159,-0.5602431893348694
1728743887606523100,3.953523193359375,9.32541561126709,2.717418909072876,-0.5482721924781799
1728743887616533000,3.963532958984375,9.27034854888916,2.7988216876983643,-0.524330198764801
1728743887626542600,3.97354248046875,9.232041358947754,2.8562827110290527,-0.5027823448181152
1728743887636522000,3.98352197265625,9.263166427612305,2.8658595085144043,-0.507570743560791
1728743887646531600,3.993531494140625,9.287108421325684,2.889801502227783,-0.5339069962501526
1728743887656541400,4.00354150390625,9.327810287475586,2.911349296569824,-0.5410895943641663
1728743887666520800,4.013520751953125,9.409213066101074,2.896984100341797,-0.5985504388809204
1728743887676530400,4.023530517578125,9.47146224975586,2.851494312286377,-0.6536170840263367
1728743887686540300,4.033540283203125,9.44752025604248,2.8347349166870117,-0.7158663272857666
1728743887696519400,4.04351953125,9.418789863586426,2.8658595085144043,-0.7757213711738586
1728743887706529300,4.053529296875,9.411606788635254,2.9712042808532715,-0.7493851184844971
1728743887716539100,4.0635390625,9.373299598693848,3.028665065765381,-0.7589619159698486
1728743887726518300,4.073518310546875,9.41400146484375,3.1028854846954346,-0.7757213711738586
1728743887736528100,4.083528076171875,9.457097053527832,3.134010076522827,-0.7709329724311829
1728743887746507300,4.09350732421875,9.550470352172852,3.1507694721221924,-0.7661445140838623
1728743887756517000,4.10351708984375,9.66299819946289,3.1459810733795166,-0.727837324142456
1728743887766526700,4.113526611328125,9.646238327026367,3.1220390796661377,-0.7422025203704834
1728743887776506000,4.123506103515625,9.651026725769043,3.0526070594787598,-0.7206547260284424
1728743887786515700,4.133515625,9.646238327026367,3.0119056701660156,-0.6943184733390808
1728743887796525600,4.143525634765625,9.617507934570312,2.999934673309326,-0.6153098344802856
1728743887806505000,4.1535048828125,9.581595420837402,2.9927520751953125,-0.5602431893348694
1728743887816514600,4.1635146484375,9.567230224609375,2.985569477081299,-0.5195417404174805
1728743887826524400,4.1735244140625,9.509769439697266,2.96162748336792,-0.5003881454467773
1728743887836534000,4.183533935546875,9.488221168518066,2.9233202934265137,-0.5339069962501526
1728743887846513400,4.193513427734375,9.476250648498535,2.8634653091430664,-0.5554547905921936
1728743887856523300,4.203523193359375,9.409213066101074,2.8802247047424316,-0.5363011956214905
1728743887866502400,4.21350244140625,9.435548782348633,2.8874073028564453,-0.49320554733276367
1728743887876512300,4.22351220703125,9.435548782348633,2.851494312286377,-0.5123591423034668
1728743887886491400,4.233491455078125,9.488221168518066,2.7724854946136475,-0.5027823448181152
1728743887896470500,4.243470458984375,9.452308654785156,2.7461493015289307,-0.5051765441894531
1728743887906450000,4.253449951171875,9.402029991149902,2.7700912952423096,-0.47405192255973816
1728743887916429000,4.263428955078125,9.339780807495117,2.9281086921691895,-0.40222588181495667
1728743887926439000,4.27343896484375,9.38048267364502,3.138798475265503,-0.31124621629714966
1728743887936448800,4.28344873046875,9.514557838439941,3.2561142444610596,-0.29209262132644653
1728743887946428000,4.293427978515625,9.785101890563965,3.2561142444610596,-0.3232172429561615
1728743887956437800,4.303437744140625,10.065223693847656,3.1914708614349365,-0.4141969084739685
1728743887966417000,4.3134169921875,10.369287490844727,3.0406360626220703,-0.5841852426528931
1728743887976426800,4.3234267578125,10.656591415405273,2.8131868839263916,-0.7254431247711182
1728743887986406000,4.333406005859375,10.752359390258789,2.609679937362671,-0.8595184087753296
1728743887996385300,4.34338525390625,10.496180534362793,2.5498247146606445,-0.9840168952941895
1728743888006395000,4.353394775390625,10.180145263671875,2.607285737991333,-0.9911994934082031
1728743888016404700,4.36340478515625,10.065223693847656,2.63362193107605,-1.0031704902648926
1728743888026384000,4.3733837890625,10.005369186401367,2.6408045291900635,-0.9888052940368652
1728743888036363300,4.38336328125,10.08437728881836,2.6455929279327393,-1.0007762908935547
1728743888046373000,4.393373046875,10.321403503417969,2.6862943172454834,-1.1851298809051514
1728743888056382700,4.4033828125,10.558429718017578,2.6623523235321045,-1.3527239561080933
1728743888066362000,4.413362060546875,10.632649421691895,2.5953147411346436,-1.479616641998291
1728743888076341200,4.42334130859375,10.589553833007812,2.5522189140319824,-1.6089035272598267
1728743888086351000,4.43335107421875,10.132261276245117,2.585737943649292,-1.7286136150360107
1728743888096360700,4.443360595703125,9.411606788635254,2.715024709701538,-1.721431016921997
1728743888106340000,4.453340087890625,9.081207275390625,2.8227639198303223,-1.5705963373184204
1728743888116319200,4.4633193359375,8.939949035644531,2.9089550971984863,-1.4724340438842773
1728743888126329000,4.4733291015625,8.71728801727295,2.9712042808532715,-1.525106430053711
1728743888136308200,4.48330810546875,8.542511940002441,2.942473888397217,-1.5610195398330688
1728743888146287600,4.49328759765625,8.753201484680176,3.0358476638793945,-1.4844050407409668
1728743888156297200,4.503297119140625,9.066842079162598,3.1028854846954346,-1.3263877630233765
1728743888166276600,4.513276611328125,9.528923034667969,3.0813376903533936,-1.3024457693099976
1728743888176286200,4.5232861328125,10.160991668701172,2.8155810832977295,-1.3646949529647827
1728743888186265600,4.533265625,10.836156845092773,2.564189910888672,-1.4053963422775269
1728743888196275500,4.543275390625,11.267112731933594,2.5689783096313477,-1.4484920501708984
1728743888206254600,4.553254638671875,11.66694450378418,2.6408045291900635,-1.213860273361206
1728743888216233700,4.563233642578125,11.872846603393555,2.738966703414917,-1.0127472877502441
1728743888226243600,4.57324365234375,11.640608787536621,2.786850690841675,-1.0893617868423462
1728743888236223000,4.583222900390625,10.702081680297852,2.956839084625244,-1.0606313943862915
1728743888246232600,4.593232666015625,9.81143856048584,3.35667085647583,-0.4572925269603729
1728743888256212000,4.6032119140625,9.437943458557129,3.514688014984131,-0.19153612852096558
1728743888266221600,4.6132216796875,9.68694019317627,3.1723172664642334,-0.33279404044151306
1728743888276201000,4.623200927734375,10.120290756225586,2.4660277366638184,-0.811634361743927
1728743888286180000,4.63318017578125,10.457873344421387,1.800439715385437,-1.3407529592514038
1728743888296190000,4.64318994140625,11.05402946472168,1.256955862045288,-1.8938134908676147
1728743888306169000,4.653169189453125,11.362881660461426,0.9648633003234863,-2.279279947280884
1728743888316148500,4.6631484375,11.410765647888184,0.7254431247711182,-2.4851813316345215
1728743888326158000,4.673157958984375,11.528080940246582,0.4668693244457245,-2.741360902786255
1728743888336168000,4.68316796875,11.889605522155762,0.3926490843296051,-3.0095114707946777
1728743888346147000,4.69314697265625,12.430695533752441,0.43335050344467163,-3.1100680828094482
1728743888356157000,4.703156982421875,13.204022407531738,0.6200982332229614,-3.2178070545196533
1728743888366136000,4.713135986328125,14.147337913513184,0.4620809257030487,-3.5266590118408203
1728743888376115500,4.723115478515625,14.7387056350708,0.15083470940589905,-3.758896589279175
1728743888386125300,4.733125244140625,14.719552040100098,-0.016759412363171577,-4.062960147857666
1728743888396135000,4.743135009765625,14.5806884765625,-0.033518824726343155,-4.129997730255127
1728743888406114300,4.7531142578125,14.259865760803223,-0.014365210197865963,-4.077325344085693
1728743888416124000,4.7631240234375,13.567940711975098,0.23942017555236816,-3.9911341667175293
1728743888426103300,4.773103271484375,12.966996192932129,0.6416460275650024,-3.7924153804779053
1728743888436082400,4.78308251953125,12.57913589477539,1.0797849893569946,-3.426102638244629
1728743888446092300,4.79309228515625,12.375628471374512,1.381454348564148,-3.313575267791748
1728743888456071400,4.803071533203125,12.49055004119873,1.3766659498214722,-3.2968156337738037
1728743888466050800,4.81305078125,12.682085990905762,1.3000515699386597,-3.203441858291626
1728743888476060400,4.823060302734375,12.696451187133789,1.3239935636520386,-3.179499864578247
1728743888486039800,4.833039794921875,12.6150484085083,1.3910311460494995,-3.098097085952759
1728743888496019000,4.84301904296875,12.42111873626709,1.3766659498214722,-2.980781078338623
1728743888506028800,4.85302880859375,12.270283699035645,1.2042834758758545,-2.894589900970459
1728743888516008000,4.863008056640625,11.999738693237305,0.9265560507774353,-2.918531894683838
1728743888525987300,4.8729873046875,11.592724800109863,0.6943184733390808,-3.071760892868042
1728743888535997000,4.882996826171875,11.398794174194336,0.40701428055763245,-3.265691041946411
1728743888545976300,4.892976318359375,11.23598861694336,0.17477671802043915,-3.3638534545898438
1728743888555955500,4.90295556640625,10.955866813659668,-0.06703764945268631,-3.44765043258667
1728743888565965300,4.91296533203125,10.778696060180664,-0.2968810200691223,-3.4763808250427246
1728743888575944400,4.9229443359375,10.54406452178955,-0.29209262132644653,-3.3303346633911133
1728743888585923800,4.932923828125,10.235212326049805,-0.22505496442317963,-3.138798475265503
1728743888595933400,4.942933349609375,9.885659217834473,-0.16519992053508759,-2.9520506858825684
1728743888605912800,4.952912841796875,9.703699111938477,-0.12689268589019775,-2.779668092727661
1728743888615892000,4.96289208984375,9.524134635925293,-0.021547814831137657,-2.7317841053009033
1728743888625901800,4.97290185546875,9.567230224609375,0.12928688526153564,-2.674323320388794
1728743888635881000,4.982880859375,9.818621635437012,0.24899697303771973,-2.6647465229034424
1728743888645860400,4.9928603515625,10.259154319763184,0.16519992053508759,-2.80361008644104
1728743888655870000,5.002869873046875,10.740388870239258,-0.12449848651885986,-2.978386878967285
1728743888665849300,5.012849365234375,10.96544361114502,-0.4381389021873474,-3.222595453262329
1728743888675828500,5.022828369140625,10.955866813659668,-0.6248866319656372,-3.3470940589904785
1728743888685838300,5.03283837890625,10.771512985229492,-0.6248866319656372,-3.2848446369171143
1728743888695817500,5.0428173828125,10.230423927307129,-0.47405192255973816,-3.0765492916107178
1728743888705796900,5.052796875,9.636661529541016,-0.20350714027881622,-2.8203697204589844
1728743888715806700,5.062806640625,8.927978515625,0.1364694982767105,-2.564189910888672
1728743888725785900,5.072785888671875,8.226476669311523,0.3471592366695404,-2.4851813316345215
1728743888735765000,5.082764892578125,7.654263019561768,0.4572925269603729,-2.38462495803833
1728743888745774800,5.09277490234375,7.2352776527404785,0.5410895943641663,-2.3032219409942627
1728743888755784700,5.10278466796875,6.964732646942139,0.5482721924781799,-2.229001760482788
1728743888765763800,5.112763916015625,6.806715488433838,0.4884171485900879,-2.140416383743286
1728743888775743200,5.1227431640625,6.6391215324401855,0.395043283700943,-2.006340980529785
1728743888785752800,5.1327529296875,6.440402507781982,0.31364041566848755,-1.9273324012756348
1728743888795732200,5.142732177734375,6.141127586364746,0.31124621629714966,-1.9728221893310547
1728743888805711400,5.15271142578125,5.9519853591918945,0.3495534360408783,-1.987187385559082
1728743888815721200,5.16272119140625,5.899312973022461,0.363918662071228,-1.9536685943603516
1728743888825700400,5.172700439453125,5.863399982452393,0.33039984107017517,-1.9177556037902832
1728743888835710200,5.182710205078125,5.827486991882324,0.31364041566848755,-1.8938134908676147
1728743888845689300,5.192689453125,5.762843608856201,0.33758243918418884,-1.824381709098816
1728743888855699200,5.20269921875,5.772420406341553,0.42616790533065796,-1.7310078144073486
1728743888865678300,5.21267822265625,5.9088897705078125,0.5171475410461426,-1.6759412288665771
1728743888875657700,5.22265771484375,6.107608318328857,0.5267243981361389,-1.6112977266311646
1728743888885667300,5.232667236328125,6.294356346130371,0.4405331015586853,-1.647210717201233
1728743888895677200,5.24267724609375,6.4380083084106445,0.2537853717803955,-1.7501614093780518
1728743888905656300,5.25265625,6.615179061889648,0.10773907601833344,-1.8914192914962769
1728743888915635700,5.2626357421875,6.708553314208984,0.040701430290937424,-1.98958158493042
1728743888925645600,5.2726455078125,6.768408298492432,-0.011971008032560349,-2.030282974243164
1728743888935624700,5.282624755859375,6.7492547035217285,-0.06703764945268631,-2.0661959648132324
1728743888945603800,5.292603759765625,6.682217121124268,-0.05267243832349777,-2.03507137298584
1728743888955613700,5.30261376953125,6.615179061889648,0.06703764945268631,-2.054224967956543
1728743888965593000,5.312593017578125,6.576871871948242,0.21308395266532898,-2.0590133666992188
1728743888975572200,5.322572265625,6.646304130554199,0.42856210470199585,-2.013523578643799
1728743888985582000,5.33258203125,6.871358871459961,0.6033388376235962,-2.0590133666992188
1728743888995591700,5.342591796875,7.141903877258301,0.6655880808830261,-2.126051187515259
1728743889005571000,5.352571044921875,7.429207801818848,0.586579442024231,-2.2457611560821533
1728743889015550200,5.36255029296875,7.706935405731201,0.4572925269603729,-2.451662540435791
1728743889025560000,5.37256005859375,7.977479934692383,0.2801215946674347,-2.693476915359497
1728743889035569700,5.382569580078125,8.226476669311523,0.10534487664699554,-2.8802247047424316
1728743889045549000,5.392549072265625,8.451532363891602,-0.004788403399288654,-3.045424461364746
1728743889055528200,5.402528076171875,8.645462036132812,-0.021547814831137657,-3.1890766620635986
1728743889065538000,5.4125380859375,8.78193187713623,-0.08379705995321274,-3.2992098331451416
1728743889075517200,5.42251708984375,8.892065048217773,-0.15083470940589905,-3.445256233215332
1728743889085496600,5.43249658203125,8.944737434387207,-0.21308395266532898,-3.6152446269989014
1728743889095475700,5.442475830078125,9.066842079162598,-0.3256114423274994,-3.732560396194458
1728743889105485600,5.452485595703125,9.196128845214844,-0.4429273009300232,-3.8522706031799316
1728743889115464700,5.462464599609375,9.284713745117188,-0.5219359993934631,-3.9240965843200684
1728743889125474600,5.472474609375,9.272743225097656,-0.545877993106842,-3.936067581176758
1728743889135453700,5.48245361328125,9.208099365234375,-0.5674257874488831,-3.9049429893493652
1728743889145463600,5.492463623046875,9.07641887664795,-0.6344634294509888,-3.861847400665283
1728743889155443000,5.50244287109375,8.853757858276367,-0.7015010714530945,-3.799597978591919
1728743889165422000,5.512422119140625,8.501810073852539,-0.6536170840263367,-3.6822822093963623
1728743889175432000,5.522431884765625,8.154650688171387,-0.586579442024231,-3.514688014984131
1728743889185411000,5.5324111328125,7.857769966125488,-0.5291185975074768,-3.361459255218506
1728743889195390200,5.54239013671875,7.663839817047119,-0.4596867263317108,-3.2130186557769775
1728743889205400000,5.552400146484375,7.7213006019592285,-0.4118026793003082,-3.1651346683502197
1728743889215379500,5.56237939453125,7.872135162353516,-0.395043283700943,-3.19865345954895
1728743889225389000,5.57238916015625,8.08043098449707,-0.40462008118629456,-3.2992098331451416
1728743889235368400,5.582368408203125,8.468291282653809,-0.40462008118629456,-3.4165258407592773
1728743889245347600,5.59234765625,8.722076416015625,-0.47644615173339844,-3.5242648124694824
1728743889255357400,5.602357421875,8.887276649475098,-0.5578489899635315,-3.6559460163116455
1728743889265336600,5.612336669921875,8.916007041931152,-0.5602431893348694,-3.711012601852417
1728743889275346400,5.622346435546875,8.89685344696045,-0.4812345504760742,-3.648763418197632
1728743889285325600,5.63232568359375,8.777143478393555,-0.3280056416988373,-3.5410242080688477
1728743889295305000,5.642304931640625,8.722076416015625,-0.06703764945268631,-3.3518824577331543
1728743889305314600,5.652314453125,8.736441612243652,0.15322890877723694,-3.2297780513763428
1728743889315294000,5.6622939453125,8.698134422302246,0.2585737705230713,-3.1938650608062744
1728743889325273000,5.672273193359375,8.803479194641113,0.3687070608139038,-3.184288263320923
1728743889335283000,5.682282958984375,8.875306129455566,0.45010992884635925,-3.1890766620635986
1728743889345262000,5.692261962890625,8.951920509338379,0.4405331015586853,-3.2082302570343018
1728743889355241500,5.702241455078125,8.959102630615234,0.31842881441116333,-3.2537200450897217
1728743889365251000,5.7122509765625,8.911218643188477,0.3016694188117981,-3.203441858291626
1728743889375230500,5.72223046875,8.884882926940918,0.33997663855552673,-3.090914487838745
1728743889385209600,5.732209716796875,8.858546257019043,0.3878606855869293,-2.9496564865112305
1728743889395219500,5.742219482421875,8.844181060791016,0.5530605912208557,-2.7988216876983643
1728743889405198600,5.752198486328125,8.9064302444458,0.6919242739677429,-2.676717519760132
1728743889415178000,5.762177978515625,8.908824920654297,0.828393816947937,-2.583343744277954
1728743889425187600,5.7721875,8.951920509338379,0.8834604024887085,-2.5977089405059814
1728743889435197400,5.782197509765625,8.975862503051758,0.8690952062606812,-2.674323320388794
1728743889445176800,5.7921767578125,9.07641887664795,0.8188169598579407,-2.7700912952423096
1728743889455156000,5.802156005859375,9.102754592895508,0.790086567401886,-2.7892448902130127
1728743889465165800,5.812165771484375,9.150638580322266,0.8212111592292786,-2.82515811920166
1728743889475145000,5.82214501953125,9.239224433898926,0.8212111592292786,-2.8610711097717285
1728743889485124000,5.8321240234375,9.41400146484375,0.8810662031173706,-2.918531894683838
1728743889495134000,5.842134033203125,9.605537414550781,1.0103530883789062,-2.8874073028564453
1728743889505113300,5.85211328125,9.828198432922363,1.1444283723831177,-2.8395233154296875
1728743889515092500,5.862092529296875,10.103530883789062,1.2425906658172607,-2.7964274883270264
1728743889525102300,5.872102294921875,10.287884712219238,1.1540051698684692,-2.873042106628418
1728743889535112000,5.88211181640625,10.438719749450684,0.8738836050033569,-3.0334534645080566
1728743889545091300,5.89209130859375,10.347740173339844,0.6344634294509888,-3.1651346683502197
1728743889555070500,5.902070556640625,10.211270332336426,0.4836287498474121,-3.205836057662964
1728743889565080300,5.912080322265625,10.093954086303711,0.35673606395721436,-3.2082302570343018
1728743889575090000,5.92208984375,9.916783332824707,0.3878606855869293,-3.1220390796661377
1728743889585069300,5.9320693359375,9.837775230407715,0.5171475410461426,-2.9448680877685547
1728743889595079200,5.9420791015625,9.742006301879883,0.6033388376235962,-2.7892448902130127
1728743889605058300,5.952058349609375,9.706093788146973,0.5434837937355042,-2.6815059185028076
1728743889615037400,5.962037353515625,9.533711433410645,0.4405331015586853,-2.6791117191314697
1728743889625047300,5.97204736328125,9.428366661071777,0.30885201692581177,-2.6168625354766846
1728743889635026700,5.982026611328125,9.366117477416992,0.18914192914962769,-2.537853717803955
1728743889645005800,5.992005859375,9.246406555175781,0.1604115068912506,-2.4636335372924805
1728743889655015700,6.002015625,9.165003776550293,0.2082955539226532,-2.365471363067627
1728743889664994800,6.011994873046875,9.165003776550293,0.27054479718208313,-2.27209734916687
1728743889674974000,6.021973876953125,9.277531623840332,0.08140286058187485,-2.4396915435791016
1728743889684983800,6.03198388671875,9.44752025604248,-0.1867477297782898,-2.5474305152893066
1728743889694993700,6.04199365234375,9.6989107131958,-0.30885201692581177,-2.5929205417633057
1728743889704972800,6.051972900390625,9.847352027893066,-0.4381389021873474,-2.786850690841675
1728743889714952200,6.0619521484375,9.926360130310059,-0.48602294921875,-2.8658595085144043
1728743889724961800,6.0719619140625,9.986215591430664,-0.47165772318840027,-2.782062292098999
1728743889734971600,6.0819716796875,10.031704902648926,-0.3758896589279175,-2.6408045291900635
1728743889744950800,6.09195068359375,9.988609313964844,-0.24181437492370605,-2.5115175247192383
1728743889754960600,6.101960693359375,9.938331604003906,-0.1173158809542656,-2.3343467712402344
1728743889764939800,6.111939697265625,9.835380554199219,-0.016759412363171577,-2.145204782485962
1728743889774919200,6.121919189453125,9.761159896850586,0.0454898327589035,-1.968033790588379
1728743889784929000,6.131928955078125,9.509769439697266,0.031124621629714966,-1.8842366933822632
1728743889794908200,6.141908203125,9.21288776397705,-0.06464344263076782,-1.7621324062347412
1728743889804887300,6.15188720703125,9.119514465332031,-0.2825157940387726,-1.6424223184585571
1728743889814897200,6.161897216796875,8.889671325683594,-0.5171475410461426,-1.6112977266311646
1728743889824876500,6.17187646484375,8.631096839904785,-0.8619126081466675,-1.8698714971542358
1728743889834855700,6.181855712890625,8.463502883911133,-1.3670891523361206,-2.0877439975738525
1728743889844865500,6.191865478515625,8.396465301513672,-1.6328455209732056,-2.142810583114624
1728743889854875100,6.201875244140625,8.422801971435547,-1.702277421951294,-2.140416383743286
1728743889864854500,6.2118544921875,8.525752067565918,-1.5705963373184204,-2.0039467811584473
1728743889874833700,6.221833740234375,8.31985092163086,-1.3096283674240112,-1.766920804977417
1728743889884843500,6.231843505859375,8.279149055480957,-1.0031704902648926,-1.4484920501708984
1728743889894822700,6.24182275390625,8.40843677520752,-0.8762778043746948,-1.1899182796478271
1728743889904802000,6.251802001953125,8.47786808013916,-0.7374141216278076,-0.9911994934082031
1728743889914781200,6.26178125,8.5903959274292,-0.6177040338516235,-0.9792284965515137
1728743889924791000,6.271791015625,8.848969459533691,-0.5123591423034668,-1.0773907899856567
1728743889934770200,6.281770263671875,9.117119789123535,-0.45010992884635925,-1.194706678390503
1728743889944749600,6.29174951171875,9.445125579833984,-0.38546648621559143,-1.3766659498214722
1728743889954759200,6.30175927734375,9.971850395202637,-0.44532153010368347,-1.644816517829895
1728743889964738600,6.311738525390625,10.369287490844727,-0.5386953949928284,-1.9129672050476074
1728743889974748200,6.321748046875,10.381258964538574,-0.49799394607543945,-2.2242133617401123
1728743889984727600,6.3317275390625,10.29746150970459,-0.4644751250743866,-2.4229321479797363
1728743889994737200,6.341737060546875,10.366893768310547,-0.42856210470199585,-2.63362193107605
1728743890004716500,6.351716552734375,10.682928085327148,-0.40701428055763245,-2.846705913543701
1728743890014695700,6.36169580078125,11.197681427001953,-0.40462008118629456,-3.093308687210083
1728743890024705500,6.37170556640625,11.33654499053955,-0.45010992884635925,-3.2968156337738037
1728743890034715400,6.38171533203125,11.022904396057129,-0.3495534360408783,-3.450044631958008
1728743890044694500,6.391694580078125,10.498574256896973,-0.09576806426048279,-3.4955344200134277
1728743890054673700,6.401673583984375,10.146626472473145,0.15083470940589905,-3.3207578659057617
1728743890064683500,6.41168359375,9.86889934539795,0.3758896589279175,-3.162740468978882
1728743890074693400,6.421693359375,9.284713745117188,0.689530074596405,-2.9879636764526367
1728743890084672500,6.431672607421875,8.707711219787598,0.9241618514060974,-2.846705913543701
1728743890094652000,6.44165185546875,8.14028549194336,1.0007762908935547,-2.652775526046753
1728743890104661500,6.45166162109375,7.733271598815918,0.9816226959228516,-2.4851813316345215
1728743890114641000,6.461640869140625,7.453149795532227,0.8259995579719543,-2.4013843536376953
1728743890124650500,6.471650390625,7.3238630294799805,0.524330198764801,-2.3774423599243164
1728743890134630000,6.4816298828125,6.818686485290527,0.30885201692581177,-2.451662540435791
1728743890144639500,6.491639404296875,6.653486728668213,0.16519992053508759,-2.477998733520508
1728743890154619000,6.501618896484375,10.74996566772461,1.4652514457702637,-3.050212860107422
1728743890164598000,6.511597900390625,9.026140213012695,2.3582887649536133,-3.361459255218506
1728743890174577400,6.521577392578125,6.840234279632568,2.343923568725586,-2.7317841053009033
1728743890184587000,6.5315869140625,5.420472621917725,2.070984363555908,-2.6862943172454834
1728743890194566400,6.54156640625,4.481945514678955,1.8818424940109253,-2.8155810832977295
1728743890204545500,6.551545654296875,4.046200752258301,1.8315643072128296,-3.3494882583618164
1728743890214525000,6.56152490234375,4.5825018882751465,2.0470423698425293,-4.891354084014893
1728743890224565200,6.571565185546875,5.896918773651123,2.719813108444214,-7.010222434997559
1728743890234544400,6.58154443359375,6.53377628326416,2.4444799423217773,-7.857769966125488
1728743890244554200,6.59155419921875,8.398859977722168,1.3407529592514038,-7.951143741607666
1728743890254563800,6.601563720703125,8.248024940490723,0.31603461503982544,-7.967903137207031
1728743890264543200,6.611543212890625,7.2352776527404785,-0.49559974670410156,-7.888894557952881
1728743890274522400,6.6215224609375,7.745242595672607,-1.501164436340332,-8.08282470703125
1728743890284532200,6.6315322265625,8.152256965637207,-1.6615760326385498,-8.106766700744629
1728743890294541800,6.641541748046875,8.188169479370117,-1.113303780555725,-8.192957878112793
1728743890304521200,6.651521240234375,7.948749542236328,-0.08858546614646912,-8.209717750549316
1728743890314500400,6.661500244140625,7.690176010131836,0.730231523513794,-8.293514251708984
1728743890324510200,6.67151025390625,7.524975776672363,1.015141487121582,-8.274360656738281
1728743890334489300,6.6814892578125,6.746860504150391,1.280897855758667,-7.86734676361084
1728743890344468700,6.69146875,6.641515731811523,1.1683704853057861,-7.726089000701904
1728743890354448000,6.70144775390625,6.167463779449463,1.0797849893569946,-8.283937454223633
1728743890364457700,6.711457763671875,4.699818134307861,1.137245774269104,-8.647856712341309
1728743890374467600,6.721467529296875,3.4165258407592773,1.525106430053711,-8.755595207214355
1728743890384446700,6.73144677734375,2.0183119773864746,2.5043349266052246,-8.973467826843262
1728743890394456600,6.74145654296875,3.6607344150543213,3.2321722507476807,-10.141838073730469
1728743890404466200,6.751466064453125,3.265691041946411,3.155557870864868,-10.979808807373047
1728743890414476000,6.76147607421875,1.3862427473068237,3.026270866394043,-11.161767959594727
1728743890424486000,6.77148583984375,1.0582371950149536,2.9065608978271484,-10.862493515014648
1728743890434465000,6.781465087890625,2.341529369354248,2.7964274883270264,-11.317391395568848
1728743890444475000,6.791474853515625,3.3303346633911133,2.7557260990142822,-11.858481407165527
1728743890454484500,6.801484375,3.7158010005950928,2.3774423599243164,-11.638214111328125
1728743890464494300,6.811494384765625,3.3710360527038574,1.8195933103561401,-11.762712478637695
1728743890474504200,6.821504150390625,1.9249382019042969,2.185906171798706,-11.264719009399414
1728743890484483300,6.8314833984375,1.6687586307525635,2.63362193107605,-11.027692794799805
1728743890494462700,6.841462646484375,1.5897499322891235,2.6599581241607666,-10.927136421203613
1728743890504441900,6.85144189453125,1.280897855758667,2.52109432220459,-10.90558910369873
1728743890514451700,6.86145166015625,0.8978256583213806,2.382230758666992,-10.795455932617188
1728743890524461300,6.87146142578125,0.6871358752250671,2.296039342880249,-10.307038307189941
1728743890534440700,6.881440673828125,1.4053963422775269,2.126051187515259,-9.732429504394531
1728743890544450300,6.8914501953125,1.9991583824157715,2.2577321529388428,-9.437943458557129
1728743890554460200,6.901460205078125,2.3965959548950195,2.300827741622925,-9.282320022583008
1728743890564470000,6.911469970703125,1.8339585065841675,2.070984363555908,-9.75637149810791
1728743890574479600,6.921479736328125,0.9576807022094727,1.3670891523361206,-10.632649421691895
1728743890584459000,6.931458984375,-0.2298433631658554,1.316810965538025,-10.572794914245605
1728743890594438100,6.941438232421875,-1.1228805780410767,1.3694833517074585,-10.091560363769531
1728743890604417500,6.95141748046875,-2.2026655673980713,1.6160861253738403,-9.763554573059082
1728743890614427100,6.96142724609375,-3.445256233215332,2.118868589401245,-9.581595420837402
1728743890624437000,6.97143701171875,-3.801992416381836,2.497152328491211,-9.490615844726562
1728743890634416000,6.981416015625,-4.426878929138184,2.4827871322631836,-9.588777542114258
1728743890644426000,6.991426025390625,-4.656722068786621,3.1723172664642334,-9.62947940826416
1728743890654435800,7.001435791015625,-5.47075080871582,3.883395195007324,-9.749189376831055
1728743890664445400,7.011445556640625,-5.504269599914551,4.345476150512695,-9.677363395690918
1728743890674455300,7.021455322265625,-5.07570743560791,4.766855716705322,-9.349357604980469
1728743890684434400,7.031434326171875,-5.12119722366333,5.446808815002441,-8.757989883422852
1728743890694413800,7.041413818359375,-4.821922302246094,5.959167957305908,-7.869740962982178
1728743890704393000,7.05139306640625,-4.273650169372559,6.251260757446289,-7.0988078117370605
1728743890714402800,7.06140283203125,-3.44765043258667,6.385335922241211,-6.746860504150391
1728743890724412700,7.07141259765625,-2.671929121017456,6.40927791595459,-6.22731876373291
1728743890734391800,7.081391845703125,-1.7860745191574097,6.370970726013184,-5.880159378051758
1728743890744401700,7.091401611328125,-1.292868971824646,6.313509941101074,-5.774814605712891
1728743890754411300,7.101411376953125,-1.0031704902648926,6.605602264404297,-5.432443618774414
1728743890764421000,7.111421142578125,-0.706289529800415,6.878541469573975,-4.960785865783691
1728743890774431000,7.121430908203125,-0.6631938815116882,6.998251438140869,-4.704606533050537
1728743890784410000,7.13141015625,-1.0558429956436157,6.938396453857422,-4.436455726623535
1728743890794420000,7.141419921875,-1.2761094570159912,6.830657482147217,-4.364629745483398
1728743890804399000,7.151399169921875,-1.3982137441635132,6.1985883712768555,-4.876988887786865
1728743890814409000,7.161408935546875,-1.4939818382263184,5.324704647064209,-5.801150798797607
1728743890824418600,7.17141845703125,-1.45806884765625,5.154716491699219,-6.392518520355225
1728743890834398000,7.18139794921875,-1.4413094520568848,5.556941986083984,-6.789956092834473
1728743890844407600,7.191407470703125,-1.8315643072128296,5.20978307723999,-7.754819393157959
1728743890854417400,7.20141748046875,-2.255337953567505,4.987122058868408,-8.875306129455566
1728743890864396800,7.211396728515625,-2.9712042808532715,5.286397457122803,-10.086771965026855
1728743890874376000,7.2213759765625,-3.6511576175689697,5.698200225830078,-11.63342571258545
1728743890884385800,7.2313857421875,-4.14915132522583,5.542576789855957,-13.084312438964844
1728743890894395400,7.2413955078125,-4.592078685760498,5.899312973022461,-13.986926078796387
1728743890904405200,7.2514052734375,-4.711789131164551,5.676652431488037,-15.480908393859863
1728743890914415000,7.2614150390625,-4.965574264526367,6.212953567504883,-15.286977767944336
1728743890924394200,7.271394287109375,-4.3191399574279785,6.641515731811523,-16.498443603515625
1728743890934373400,7.281373291015625,-3.823540210723877,6.756437301635742,-17.990032196044922
1728743890944352800,7.291352783203125,-3.335123062133789,6.720524311065674,-18.78730010986328
1728743890954362600,7.301362548828125,-3.047818660736084,6.646304130554199,-18.926164627075195
1728743890964341800,7.311341796875,-3.0095114707946777,6.892906665802002,-18.41380500793457
1728743890974351600,7.3213515625,-2.6886885166168213,6.414066314697266,-18.16241455078125
1728743890984361200,7.331361328125,-2.434903144836426,5.434837818145752,-17.68117904663086
1728743890994371000,7.34137109375,-2.473210334777832,5.066130638122559,-16.740259170532227
1728743891004381000,7.351380859375,-2.449268341064453,4.709394931793213,-16.02678680419922
1728743891014390500,7.361390625,-2.477998733520508,4.347870349884033,-15.473725318908691
1728743891024400400,7.371400390625,-2.427720546722412,4.062960147857666,-15.030797958374023
1728743891034410000,7.381409912109375,-2.367865562438965,3.914519786834717,-14.61420726776123
1728743891044419800,7.391419921875,-2.2146365642547607,3.952826976776123,-14.209587097167969
1728743891054429700,7.4014296875,-1.8698714971542358,3.909731388092041,-13.613430976867676
1728743891064439300,7.411439208984375,-1.5107412338256836,3.7038300037384033,-12.732364654541016
1728743891074449200,7.42144921875,-1.290474772453308,3.3949780464172363,-11.559206008911133
1728743891084459000,7.431458984375,-1.1324573755264282,2.7293899059295654,-9.959878921508789
1728743891094438100,7.441438232421875,-0.6943184733390808,2.1164743900299072,-8.178592681884766
1728743891104448000,7.451447998046875,-0.14604631066322327,1.4269442558288574,-6.5265936851501465
1728743891114457600,7.46145751953125,0.5219359993934631,0.8140285611152649,-5.260061264038086
1728743891124467500,7.471467529296875,1.3910311460494995,0.49559974670410156,-4.062960147857666
1728743891134477300,7.481477294921875,2.1499931812286377,0.40462008118629456,-2.9975404739379883
1728743891144487000,7.49148681640625,2.580949544906616,0.3878606855869293,-2.078166961669922
1728743891154496800,7.501496826171875,2.7054479122161865,0.545877993106842,-1.2018892765045166
1728743891164506600,7.511506591796875,2.5019407272338867,0.6344634294509888,-0.6655880808830261
1728743891174516200,7.52151611328125,2.185906171798706,0.3998316824436188,-0.40462008118629456
1728743891184526000,7.531526123046875,1.8746598958969116,0.10055647045373917,-0.15322890877723694
1728743891194536000,7.541535888671875,1.5298948287963867,-0.20350714027881622,0.07422025501728058
1728743891204545500,7.551545654296875,1.2114660739898682,-0.6775590777397156,-0.0694318488240242
1728743891214555400,7.561555419921875,0.9528923034667969,-1.0845733880996704,-0.49559974670410156
1728743891224565200,7.571565185546875,0.9074024558067322,-1.1276689767837524,-0.730231523513794
1728743891234574800,7.581574951171875,0.9648633003234863,-1.3766659498214722,-0.9864110946655273
1728743891244554200,7.59155419921875,1.0031704902648926,-1.659181833267212,-1.5155296325683594
1728743891254533400,7.601533447265625,0.950498104095459,-1.7262194156646729,-2.0638017654418945
1728743891264512800,7.6115126953125,0.8068459630012512,-1.4963760375976562,-2.3774423599243164
1728743891274522400,7.6215224609375,0.7565677165985107,-1.414973258972168,-2.978386878967285
1728743891284501800,7.631501708984375,1.1061211824417114,-1.4197616577148438,-3.8379054069519043
1728743891294511400,7.641511474609375,1.723825216293335,-1.4987702369689941,-5.1810526847839355
1728743891304521200,7.651521240234375,1.9177556037902832,-2.209848165512085,-7.694964408874512
1728743891314531000,7.661531005859375,1.678335428237915,-2.7772738933563232,-10.472238540649414
1728743891324540700,7.671540771484375,1.2880805730819702,-3.184288263320923,-13.407529830932617
1728743891334520000,7.68152001953125,0.7110779285430908,-3.335123062133789,-16.21592903137207
1728743891344529700,7.69152978515625,-0.15801730751991272,-2.1595699787139893,-19.065027236938477
1728743891354539500,7.70153955078125,-0.6392518281936646,-0.47644615173339844,-21.430500030517578
1728743891364549400,7.71154931640625,-0.9840168952941895,0.828393816947937,-23.31952476501465
1728743891374559000,7.72155908203125,-0.9959878921508789,1.9488801956176758,-24.84941864013672
1728743891384568800,7.73156884765625,-0.7493851184844971,2.7222073078155518,-25.68978500366211
1728743891394578700,7.74157861328125,-0.3256114423274994,3.1938650608062744,-25.433605194091797
1728743891404588300,7.75158837890625,-0.21308395266532898,3.4763808250427246,-24.217350006103516
1728743891414598100,7.76159814453125,-0.08140286058187485,3.224989652633667,-22.641965866088867
1728743891424607700,7.771607666015625,0.17956513166427612,3.2345664501190186,-20.877439498901367
1728743891434617600,7.78161767578125,0.4572925269603729,3.2848446369171143,-19.230228424072266
1728743891444597000,7.791596923828125,0.6177040338516235,3.4165258407592773,-17.496826171875
1728743891454576000,7.801576171875,0.7015010714530945,3.4117374420166016,-15.875951766967773
1728743891464555300,7.81155517578125,0.7015010714530945,3.7612907886505127,-13.910311698913574
1728743891474565000,7.821565185546875,0.5770025849342346,3.864241600036621,-11.903970718383789
1728743891484544500,7.83154443359375,0.42856210470199585,3.7493197917938232,-9.885659217834473
1728743891494554000,7.84155419921875,0.4668693244457245,3.667917013168335,-8.142680168151855
1728743891504564000,7.85156396484375,0.912190854549408,3.648763418197632,-6.4380083084106445
1728743891514573600,7.861573486328125,1.2761094570159912,3.4835634231567383,-4.599261283874512
1728743891524583400,7.87158349609375,1.2258312702178955,3.399766445159912,-2.652775526046753
1728743891534593300,7.88159326171875,1.0462661981582642,3.471592426300049,-0.7948749661445618
1728743891544603000,7.891602783203125,0.8451532125473022,3.40216064453125,0.8212111592292786
1728743891554582300,7.901582275390625,0.7637503147125244,3.3901896476745605,1.968033790588379
1728743891564591900,7.911591796875,0.7565677165985107,3.622427225112915,2.889801502227783
1728743891574601700,7.921601806640625,0.8259995579719543,3.818751811981201,3.5482068061828613
1728743891584611600,7.931611572265625,1.070208191871643,3.866635799407959,3.77565598487854
1728743891594621200,7.94162109375,1.3048399686813354,3.864241600036621,3.641580820083618
1728743891604631000,7.951631103515625,1.3718775510787964,4.003105163574219,3.40216064453125
1728743891614641000,7.961640869140625,1.1109095811843872,4.101267337799072,2.889801502227783
1728743891624650500,7.971650390625,0.6200982332229614,4.309563159942627,2.300827741622925
1728743891634660400,7.981660400390625,0.08379705995321274,4.69024133682251,1.6831238269805908
1728743891644639500,7.991639404296875,-0.5410895943641663,5.140350818634033,0.9265560507774353
1728743891654619000,8.001618896484375,-1.1899182796478271,5.4013190269470215,-0.07661445438861847
1728743891664598000,8.011597900390624,-1.625662922859192,5.638344764709473,-1.2090718746185303
1728743891674607900,8.02160791015625,-1.9536685943603516,5.9519853591918945,-2.1595699787139893
1728743891684617700,8.03161767578125,-2.185906171798706,6.22731876373291,-2.942473888397217
1728743891694627300,8.04162744140625,-2.255337953567505,6.392518520355225,-3.7828385829925537
1728743891704637200,8.05163720703125,-2.2218191623687744,6.576871871948242,-4.927267074584961
1728743891714647000,8.06164697265625,-2.121262788772583,6.392518520355225,-6.806715488433838
1728743891724656600,8.07165673828125,-2.073378562927246,5.91128396987915,-9.184157371520996
1728743891734666500,8.08166650390625,-2.0829553604125977,4.944026470184326,-12.006921768188477
1728743891744676000,8.091676025390624,-1.7525556087493896,3.957615375518799,-16.16325569152832
1728743891754686000,8.10168603515625,-1.4652514457702637,3.93367338180542,-20.666749954223633
1728743891764695800,8.11169580078125,-1.1779472827911377,4.120420932769775,-25.129541397094727
1728743891774705400,8.121705322265624,-1.235408067703247,3.691859006881714,-29.144617080688477
1728743891784715300,8.13171533203125,-1.723825216293335,3.332728862762451,-31.620222091674805
1728743891794694700,8.141694580078125,-1.9608511924743652,3.4811692237854004,-32.225955963134766
1728743891804704300,8.151704345703125,-1.5155296325683594,2.3965959548950195,-32.47016525268555
1728743891814714000,8.161714111328125,-0.42856210470199585,0.5961562395095825,-32.292991638183594
1728743891824723700,8.1717236328125,0.5410895943641663,-0.6751648783683777,-31.328128814697266
1728743891834733600,8.181733642578125,0.9672574996948242,-1.6352397203445435,-29.82696533203125
1728743891844743400,8.191743408203125,0.8738836050033569,-2.346317768096924,-28.38326072692871
1728743891854753000,8.2017529296875,0.3926490843296051,-2.6431987285614014,-26.862943649291992
1728743891864732400,8.211732421875,-0.08858546614646912,-2.7700912952423096,-25.107994079589844
1728743891874711600,8.221711669921875,-0.2849099934101105,-2.2433669567108154,-22.77843475341797
1728743891884691000,8.23169091796875,-0.23942017555236816,-1.7310078144073486,-19.98440170288086
1728743891894670000,8.241670166015625,0.2106897532939911,-1.3838485479354858,-17.12333106994629
1728743891904649500,8.2516494140625,1.3287819623947144,-1.0821791887283325,-14.2431058883667
1728743891914659000,8.2616591796875,2.9472622871398926,-0.933738648891449,-11.353304862976074
1728743891924669000,8.2716689453125,4.469974517822266,-1.1659762859344482,-8.815450668334961
1728743891934678800,8.2816787109375,5.949591159820557,-1.3096283674240112,-5.853823184967041
1728743891944688400,8.2916884765625,6.950367450714111,-1.6974890232086182,-3.2992098331451416
1728743891954667800,8.301667724609375,7.857769966125488,-2.2026655673980713,-1.6160861253738403
1728743891964707800,8.311707763671874,8.925583839416504,-2.363077163696289,-0.19632454216480255
1728743891974687200,8.321687255859375,8.779537200927734,-2.0207061767578125,1.8531121015548706
1728743891984697000,8.331697021484375,7.807491779327393,-1.800439715385437,3.406949043273926
1728743891994706700,8.341706787109375,6.457161903381348,-2.0805611610412598,3.892971992492676
1728743892004716500,8.351716552734375,4.9583916664123535,-2.8203697204589844,3.7924153804779053
1728743892014726100,8.36172607421875,3.624821424484253,-3.665522813796997,3.88818359375
1728743892024736000,8.371736083984375,2.6647465229034424,-4.311957359313965,4.606443881988525
1728743892034745900,8.381745849609375,2.293645143508911,-4.551377296447754,5.197812080383301
1728743892044725000,8.39172509765625,2.4660277366638184,-4.726154327392578,5.34625244140625
1728743892054734800,8.40173486328125,3.0190882682800293,-4.771644115447998,5.353435039520264
1728743892064714000,8.4117138671875,3.5458126068115234,-4.857835292816162,4.692635536193848
1728743892074723800,8.421723876953125,4.213795185089111,-5.78678560256958,3.2776620388031006
1728743892084733700,8.431733642578125,4.6734819412231445,-5.676652431488037,2.1978771686553955
1728743892094712800,8.441712890625,4.963180065155029,-5.216965675354004,1.2066776752471924
1728743892104722700,8.45172265625,4.927267074584961,-5.463568210601807,0.3495534360408783
1728743892114732300,8.461732177734374,4.869806289672852,-5.91128396987915,-0.272938996553421
1728743892124711700,8.471711669921875,4.752490520477295,-6.722918510437012,-1.8483237028121948
1728743892134690800,8.48169091796875,4.402936935424805,-7.560888767242432,-4.618414878845215
1728743892144700700,8.49170068359375,3.7181951999664307,-8.53293514251709,-7.5848307609558105
1728743892154710500,8.50171044921875,2.7126305103302,-9.78989028930664,-10.931924819946289
1728743892164720000,8.51172021484375,1.6424223184585571,-10.273519515991211,-14.982913970947266
1728743892174699500,8.521699462890625,0.9002198576927185,-9.239224433898926,-19.412187576293945
1728743892184739600,8.531739501953124,0.23702596127986908,-7.908048152923584,-24.435222625732422
1728743892194719000,8.541718994140625,-0.5770025849342346,-5.7125654220581055,-28.287492752075195
1728743892204728800,8.551728759765625,-1.259350061416626,-3.711012601852417,-30.997730255126953
1728743892214738400,8.561738525390625,-1.113303780555725,-1.86508309841156,-32.37439727783203
1728743892224748300,8.571748291015625,-0.29209262132644653,-0.16998831927776337,-32.06075668334961
1728743892234758000,8.5817578125,0.3232172429561615,1.6496049165725708,-30.904356002807617
1728743892244767700,8.591767822265625,0.3471592366695404,3.021482467651367,-29.616275787353516
1728743892254777600,8.601777587890625,-0.021547814831137657,4.51067590713501,-27.322629928588867
1728743892264787200,8.611787109375,-0.5985504388809204,5.477933406829834,-24.66506576538086
1728743892274797000,8.621797119140625,-1.2761094570159912,6.098031520843506,-21.777658462524414
1728743892284807000,8.631806884765625,-1.7932571172714233,6.885724067687988,-18.550273895263672
1728743892294816500,8.64181640625,-2.030282974243164,7.515398979187012,-15.524003982543945
1728743892304796000,8.6517958984375,-2.0207061767578125,8.147468566894531,-12.322956085205078
1728743892314775000,8.661775146484375,-1.7334020137786865,8.966285705566406,-9.528923034667969
1728743892324754400,8.67175439453125,-1.2282254695892334,9.861717224121094,-6.785167694091797
1728743892334764000,8.681763916015624,-0.5123591423034668,10.690110206604004,-4.438849925994873
1728743892344743400,8.691743408203125,-0.06224924325942993,11.23598861694336,-2.9975404739379883
1728743892354753000,8.7017529296875,0.17238251864910126,11.532869338989258,-2.0183119773864746
1728743892364732400,8.711732421875,0.10295066982507706,11.496956825256348,-1.3958195447921753
1728743892374742000,8.721741943359374,-0.19393034279346466,11.535264015197754,-1.0199298858642578
1728743892384751900,8.731751953125,-0.507570743560791,11.341333389282227,-1.0893617868423462
1728743892394761700,8.74176171875,-0.828393816947937,10.606313705444336,-1.4508862495422363
1728743892404771300,8.751771240234374,-1.0749965906143188,10.029311180114746,-1.4724340438842773
1728743892414781200,8.76178125,-1.2090718746185303,10.156203269958496,-1.091755986213684
1728743892424791000,8.771791015625,-1.3192051649093628,10.271124839782715,-0.9002198576927185
1728743892434770200,8.781770263671875,-1.5658079385757446,10.268731117248535,-0.7158663272857666
1728743892444780000,8.791780029296875,-1.8722656965255737,10.062829971313477,-1.3120225667953491
1728743892454789600,8.80178955078125,-2.2242133617401123,9.821015357971191,-2.0805611610412598
1728743892464799500,8.811799560546875,-2.477998733520508,9.526528358459473,-2.609679937362671
1728743892474809300,8.821809326171875,-2.719813108444214,9.373299598693848,-3.4332852363586426
1728743892484819000,8.83181884765625,-3.0550012588500977,9.071630477905273,-4.517858505249023
1728743892494828800,8.841828857421875,-3.3638534545898438,8.614337921142578,-5.66228723526001
1728743892504838700,8.851838623046875,-3.5697548389434814,7.987056732177734,-7.888894557952881
1728743892514848300,8.86184814453125,-3.713406801223755,7.017405033111572,-10.733205795288086
1728743892524827600,8.87182763671875,-3.268085241317749,5.762843608856201,-14.358027458190918
1728743892534806800,8.881806884765625,-2.583343744277954,4.19224739074707,-19.50316619873047
1728743892544786200,8.8917861328125,-2.121262788772583,3.754108190536499,-24.696189880371094
1728743892554795800,8.901795654296874,-2.2218191623687744,3.4524388313293457,-29.060819625854492
1728743892564805600,8.9118056640625,-2.7246015071868896,1.8818424940109253,-32.826900482177734
1728743892574784800,8.92178466796875,-3.2632968425750732,0.38546648621559143,-34.51481246948242
1728743892584825000,8.9318251953125,-3.114856481552124,-0.7350199222564697,-34.98646926879883
1728743892594804500,8.941804443359375,-2.2026655673980713,-2.449268341064453,-35.02238082885742
1728743892604814000,8.95181396484375,-0.7924807667732239,-4.0533833503723145,-33.916259765625
1728743892614824000,8.961823974609375,0.828393816947937,-4.9368438720703125,-32.07272720336914
1728743892624833800,8.971833740234375,1.7693150043487549,-5.700594425201416,-29.76471519470215
1728743892634843400,8.981843505859375,1.9728221893310547,-6.215347766876221,-27.14785385131836
1728743892644822800,8.99182275390625,1.4484920501708984,-6.246472358703613,-24.23650360107422
1728743892654802000,9.001802001953125,0.6560112833976746,-6.016628742218018,-20.932504653930664
1728743892664811800,9.011811767578125,-0.1388636976480484,-5.604825973510742,-17.573440551757812
1728743892674791000,9.021791015625,-0.22026655077934265,-5.341464042663574,-14.48970890045166
1728743892684800800,9.03180078125,0.043095629662275314,-5.386953830718994,-11.772290229797363
1728743892694810600,9.041810546875,0.4620809257030487,-5.456385612487793,-9.62947940826416
1728743892704820200,9.0518203125,1.5275006294250488,-5.822698593139648,-7.314286231994629
1728743892714830000,9.061830078125,2.7222073078155518,-6.36378812789917,-5.140350818634033
1728743892724809200,9.071809326171875,3.912125587463379,-7.024587631225586,-3.136404275894165
1728743892734819000,9.081819091796875,5.513846397399902,-7.568071365356445,-1.4891934394836426
1728743892744829000,9.091828857421875,7.283161640167236,-7.709329605102539,0.586579442024231
1728743892754838500,9.101838623046875,8.061277389526367,-7.663839817047119,3.1866824626922607
1728743892764848400,9.111848388671875,8.769960403442383,-7.0772600173950195,4.81473970413208
1728743892774827500,9.12182763671875,8.451532363891602,-6.931213855743408,6.114790916442871
1728743892784837400,9.13183740234375,7.364564418792725,-7.242460250854492,6.404489517211914
1728743892794847200,9.14184716796875,6.057330131530762,-7.872135162353516,5.863399982452393
1728743892804856800,9.15185693359375,4.776432514190674,-8.303091049194336,5.233725070953369
1728743892814866700,9.16186669921875,3.9169139862060547,-8.552088737487793,4.156333923339844
1728743892824845800,9.171845703125,3.5027170181274414,-8.827422142028809,2.6216509342193604
1728743892834855700,9.181855712890625,3.155557870864868,-8.887276649475098,1.0773907899856567
1728743892844865500,9.191865478515625,2.9520506858825684,-8.923190116882324,-0.43095630407333374
1728743892854844700,9.2018447265625,2.7940332889556885,-8.669404029846191,-1.7501614093780518
1728743892864854500,9.2118544921875,2.719813108444214,-8.307879447937012,-2.6839001178741455
1728743892874833700,9.221833740234375,2.6216509342193604,-7.931990146636963,-3.1507694721221924
1728743892884843500,9.231843505859375,2.7126305103302,-7.489062786102295,-3.406949043273926
1728743892894822700,9.24182275390625,3.179499864578247,-6.775590896606445,-3.4332852363586426
1728743892904832500,9.25183251953125,3.864241600036621,-6.955155849456787,-4.4939165115356445
1728743892914842000,9.261842041015624,4.797980308532715,-8.453926086425781,-7.196970462799072
1728743892924852000,9.27185205078125,4.683058738708496,-10.156203269958496,-11.614272117614746
1728743892934861800,9.28186181640625,3.670311212539673,-10.900800704956055,-16.95094871520996
1728743892944841000,9.291841064453125,1.9057846069335938,-11.085153579711914,-22.448034286499023
1728743892954820400,9.3018203125,-0.14604631066322327,-10.625467300415039,-27.981035232543945
1728743892964799500,9.311799560546875,-1.8794482946395874,-8.769960403442383,-32.22356033325195
1728743892974809300,9.321809326171875,-2.650381326675415,-6.169857978820801,-34.586639404296875
1728743892984819000,9.33181884765625,-2.4875755310058594,-3.4835634231567383,-35.158851623535156
1728743892994828800,9.341828857421875,-1.501164436340332,-1.381454348564148,-34.51959991455078
1728743893004838700,9.351838623046875,-0.5027823448181152,-0.35673606395721436,-33.063926696777344
1728743893014848300,9.36184814453125,-0.10295066982507706,0.24660277366638184,-30.68169403076172
1728743893024858000,9.371858154296875,-0.10534487664699554,0.9265560507774353,-27.667394638061523
1728743893034868000,9.381867919921875,-0.07422025501728058,1.5394717454910278,-24.906879425048828
1728743893044877600,9.391877685546875,0.009576806798577309,2.2912509441375732,-22.215797424316406
1728743893054857000,9.40185693359375,0.26815059781074524,3.4308910369873047,-19.294872283935547
1728743893064866600,9.411866455078124,0.9002198576927185,4.58968448638916,-16.58463478088379
1728743893074876400,9.42187646484375,1.05105459690094,5.348646640777588,-14.09705924987793
1728743893084886300,9.43188623046875,0.9481038451194763,6.04775333404541,-11.841721534729004
1728743893094895900,9.441895751953124,0.7637503147125244,6.964732646942139,-9.366117477416992
1728743893104875300,9.451875244140625,0.6368576288223267,7.922413349151611,-7.0341644287109375
1728743893114854400,9.4618544921875,0.5363011956214905,8.734047889709473,-5.039794445037842
1728743893124833800,9.471833740234375,0.48602294921875,9.428366661071777,-3.44765043258667
1728743893134843400,9.481843505859375,0.7086837291717529,10.237606048583984,-2.0374655723571777
1728743893144853200,9.491853271484375,1.0869675874710083,10.975020408630371,-0.950498104095459
1728743893154863000,9.501863037109375,1.4437036514282227,11.537657737731934,-0.3687070608139038
1728743893164842200,9.51184228515625,1.900996208190918,11.762712478637695,-0.10295066982507706
1728743893174852000,9.52185205078125,2.298433542251587,11.578359603881836,-0.35434186458587646
1728743893184861700,9.53186181640625,2.513911724090576,11.17852783203125,-0.8140285611152649
1728743893194871600,9.54187158203125,2.2577321529388428,10.90798282623291,-0.9552865028381348
1728743893204850700,9.5518505859375,1.6160861253738403,10.563218116760254,-0.8571242094039917
1728743893214860500,9.561860595703125,0.9600749015808105,10.314221382141113,-0.8690952062606812
1728743893224839700,9.571839599609374,0.33997663855552673,10.08198356628418,-0.9385270476341248
1728743893234849500,9.581849609375,-0.08140286058187485,9.404424667358398,-1.479616641998291
1728743893244859400,9.591859375,-0.2059013396501541,8.848969459533691,-2.0853497982025146
1728743893254869000,9.601868896484374,-0.2561795711517334,8.645462036132812,-2.6024973392486572
1728743893264878800,9.61187890625,-0.3734954595565796,8.279149055480957,-3.397372245788574
1728743893274888700,9.621888671875,-0.6799532771110535,8.042123794555664,-4.175487995147705
1728743893284867800,9.631867919921875,-1.115697979927063,7.843404769897461,-5.4252610206604
1728743893294847200,9.64184716796875,-1.625662922859192,7.510610580444336,-7.201758861541748
1728743893304826400,9.651826416015625,-2.070984363555908,6.5050458908081055,-9.430760383605957
1728743893314836200,9.661836181640625,-1.8746598958969116,4.659116744995117,-12.962207794189453
1728743893324845800,9.671845703125,-0.9289502501487732,2.126051187515259,-18.612524032592773
1728743893334855700,9.681855712890625,0.26815059781074524,0.9481038451194763,-24.48310661315918
1728743893344865500,9.691865478515625,1.1348515748977661,1.522712230682373,-28.895620346069336
1728743893354844700,9.7018447265625,1.2665326595306396,1.7094600200653076,-31.998506546020508
1728743893364854500,9.7118544921875,0.5530605912208557,0.9074024558067322,-33.648109436035156
1728743893374864100,9.721864013671874,0.31842881441116333,-0.06703764945268631,-34.45735168457031
1728743893384874000,9.7318740234375,0.7206547260284424,-1.5945383310317993,-34.677616119384766
1728743893394853000,9.74185302734375,1.0797849893569946,-3.292027235031128,-34.2203254699707
1728743893404832500,9.75183251953125,1.455674648284912,-5.2265424728393555,-33.133358001708984
1728743893414811600,9.761811767578125,1.4317326545715332,-6.200982570648193,-31.0623722076416
1728743893424821500,9.771821533203125,0.26815059781074524,-6.402095317840576,-28.43353843688965
1728743893434831400,9.781831298828125,-1.0079588890075684,-6.521805286407471,-25.51021957397461
1728743893444810500,9.791810546875,-1.8363527059555054,-6.3733649253845215,-22.974760055541992
1728743893454820400,9.8018203125,-2.0015525817871094,-5.904101371765137,-20.21903419494629
1728743893464799500,9.811799560546875,-1.4628572463989258,-5.506663799285889,-17.30289649963379
1728743893474809300,9.821809326171875,-0.2777273952960968,-5.178658485412598,-14.346056938171387
1728743893484819000,9.83181884765625,1.4484920501708984,-5.003881454467773,-11.683704376220703
1728743893494828800,9.841828857421875,3.205836057662964,-4.9583916664123535,-9.244012832641602
1728743893504838700,9.851838623046875,4.4723687171936035,-4.972756862640381,-6.967126846313477
1728743893514848300,9.86184814453125,5.137956619262695,-5.243301868438721,-5.193023681640625
1728743893524858000,9.871858154296875,5.303156852722168,-6.121973514556885,-3.6391866207122803
1728743893534868000,9.881867919921875,5.1116204261779785,-7.022193431854248,-1.8124107122421265
1728743893544877600,9.891877685546875,5.468356609344482,-7.331045627593994,-0.011971008032560349
1728743893554887400,9.901887451171875,5.686229228973389,-7.534552574157715,1.941697597503662
1728743893564897300,9.911897216796875,5.537788391113281,-7.939172744750977,3.955221176147461
1728743893574907000,9.921906982421875,5.212177276611328,-8.252813339233398,5.578489780426025
1728743893584916700,9.931916748046875,4.9152960777282715,-8.901641845703125,6.528987884521484
1728743893594896000,9.941895751953124,4.750096321105957,-9.797073364257812,6.600813865661621
1728743893604905700,9.95190576171875,4.721365928649902,-10.51054573059082,6.246472358703613
1728743893614915600,9.96191552734375,4.661510944366455,-10.977415084838867,5.494692802429199
1728743893624925200,9.97192529296875,4.477157115936279,-11.310209274291992,3.8379054069519043
1728743893634904600,9.981904541015625,4.05817174911499,-11.619060516357422,1.9033904075622559
1728743893644883700,9.9918837890625,3.442862033843994,-11.554417610168457,0.3711012601852417
1728743893654893600,10.0018935546875,2.7892448902130127,-11.458649635314941,-1.1755530834197998
1728743893664903200,10.011903076171874,2.121262788772583,-11.259930610656738,-1.9536685943603516
1728743893674882600,10.021882568359375,1.6424223184585571,-10.81460952758789,-1.9249382019042969
1728743893684892200,10.03189208984375,1.766920804977417,-10.522516250610352,-2.1045033931732178
1728743893694902000,10.041902099609375,2.7772738933563232,-10.572794914245605,-2.7269957065582275
1728743893704881400,10.05188134765625,4.594472885131836,-11.60708999633789,-4.81473970413208
1728743893714860500,10.061860595703125,5.640739440917969,-13.639766693115234,-9.50498104095459
1728743893724839700,10.071839599609374,5.506663799285889,-14.437036514282227,-14.889540672302246
1728743893734849500,10.081849609375,4.067748546600342,-14.032416343688965,-19.527109146118164
1728743893744859400,10.091859375,1.900996208190918,-13.187262535095215,-24.219743728637695
1728743893754869000,10.101868896484374,-0.09816227108240128,-11.856086730957031,-28.66338348388672
1728743893764878800,10.11187890625,-1.7549498081207275,-9.96945571899414,-31.280244827270508
1728743893774888700,10.121888671875,-2.628833532333374,-7.797914981842041,-32.352848052978516
1728743893784867800,10.131867919921875,-2.2577321529388428,-5.674258232116699,-32.58747863769531
1728743893794877700,10.141877685546875,-1.0630255937576294,-4.405331134796143,-32.19243621826172
1728743893804887300,10.15188720703125,0.363918662071228,-3.5003228187561035,-31.141382217407227
1728743893814897200,10.161897216796875,1.4389152526855469,-2.5546131134033203,-29.721620559692383
1728743893824907000,10.171906982421875,1.86508309841156,-1.400607943534851,-28.80463981628418
1728743893834916600,10.18191650390625,1.5131354331970215,0.47644615173339844,-27.751192092895508
1728743893844896000,10.19189599609375,0.5841852426528931,2.652775526046753,-26.321853637695312
1728743893854875100,10.201875244140625,-0.608127236366272,4.613626480102539,-24.317907333374023
1728743893864854500,10.2118544921875,-1.5514427423477173,6.270414352416992,-21.777658462524414
1728743893874864000,10.221864013671874,-1.946485996246338,7.82185697555542,-18.669984817504883
1728743893884843500,10.231843505859375,-2.094926595687866,9.102754592895508,-15.471331596374512
1728743893894822700,10.24182275390625,-1.8363527059555054,10.41956615447998,-12.172121047973633
1728743893904832500,10.25183251953125,-0.9217676520347595,11.45146656036377,-9.35654067993164
1728743893914842000,10.261842041015624,0.2322375625371933,12.11705493927002,-7.022193431854248
1728743893924852000,10.27185205078125,1.192312479019165,12.876016616821289,-4.821922302246094
1728743893934861800,10.28186181640625,1.7717092037200928,13.4506254196167,-3.00711727142334
1728743893944871400,10.291871337890624,1.9345149993896484,13.623007774353027,-1.920149803161621
1728743893954881300,10.30188134765625,1.5969325304031372,13.543998718261719,-1.256955862045288
1728743893964891100,10.31189111328125,1.194706678390503,13.388376235961914,-0.9528923034667969
1728743893974870300,10.321870361328125,0.7422025203704834,12.844892501831055,-1.1851298809051514
1728743893984880000,10.331880126953125,0.12689268589019775,12.179304122924805,-1.5490485429763794
1728743893994889700,10.3418896484375,-0.4836287498474121,11.496956825256348,-1.7549498081207275
1728743894004899600,10.351899658203125,-0.9528923034667969,10.94150161743164,-2.049436569213867
1728743894014909400,10.361909423828125,-1.2617442607879639,10.69489860534668,-1.8411411046981812
1728743894024919000,10.3719189453125,-1.2186486721038818,10.733205795288086,-1.821987509727478
1728743894034929000,10.381928955078125,-0.9265560507774353,10.788272857666016,-2.1499931812286377
1728743894044938800,10.391938720703125,-0.608127236366272,10.718840599060059,-2.3127987384796143
1728743894054948400,10.4019482421875,-0.3519476354122162,10.374075889587402,-2.9927520751953125
1728743894064927700,10.411927734375,-0.24420857429504395,9.880870819091797,-4.153939723968506
1728743894074907000,10.421906982421875,-0.27054479718208313,9.217676162719727,-5.604825973510742
1728743894084886300,10.43188623046875,-0.48602294921875,7.592013359069824,-8.061277389526367
1728743894094895900,10.441895751953124,-0.5626373887062073,5.063736438751221,-12.18648624420166
1728743894104905700,10.45190576171875,-0.10055647045373917,2.0614075660705566,-17.537527084350586
1728743894114915600,10.46191552734375,0.8906430602073669,-0.31603461503982544,-23.288400650024414
1728743894124925200,10.47192529296875,1.5634137392044067,-0.6368576288223267,-27.921180725097656
1728743894134935000,10.48193505859375,1.256955862045288,-0.5099649429321289,-30.6098690032959
1728743894144945000,10.49194482421875,0.23702596127986908,-1.3527239561080933,-31.52684783935547
1728743894154924000,10.501924072265625,0.021547814831137657,-3.0119056701660156,-32.38875961303711
1728743894164964400,10.51196435546875,0.667982280254364,-5.140350818634033,-33.16926956176758
1728743894174943500,10.521943603515625,1.8291701078414917,-6.8378400802612305,-32.83647537231445
1728743894184953300,10.531953369140625,3.1244332790374756,-8.142680168151855,-32.010475158691406
1728743894194963200,10.541963134765625,3.9863457679748535,-9.148244857788086,-31.014488220214844
1728743894204972800,10.551972900390625,3.754108190536499,-9.782708168029785,-29.441497802734375
1728743894214982700,10.561982666015625,2.691082715988159,-9.880870819091797,-27.45431137084961
1728743894224992500,10.571992431640625,1.0965443849563599,-9.38048267364502,-25.46712303161621
1728743894235002000,10.582002197265625,-0.40701428055763245,-8.96149730682373,-23.044191360473633
1728743894244981500,10.5919814453125,-1.2114660739898682,-8.166622161865234,-20.28846549987793
1728743894254960600,10.601960693359375,-1.158793568611145,-7.168240070343018,-17.269376754760742
1728743894264939800,10.611939697265624,-0.6440402865409851,-6.3733649253845215,-14.267047882080078
1728743894274949600,10.62194970703125,0.19153612852096558,-5.882553577423096,-11.264719009399414
1728743894284959500,10.63195947265625,1.036689281463623,-5.5545477867126465,-8.578424453735352
1728743894294938600,10.641938720703125,2.0015525817871094,-5.679046630859375,-6.564900875091553
1728743894304948500,10.651948486328125,2.782062292098999,-6.268020153045654,-4.738125324249268
1728743894314958000,10.6619580078125,3.4524388313293457,-6.813898086547852,-2.827552318572998
1728743894324968000,10.671968017578125,4.434061527252197,-7.527369976043701,-1.2832920551300049
1728743894334977800,10.681977783203125,5.257667064666748,-7.817068576812744,0.6368576288223267
1728743894344987400,10.6919873046875,5.461174011230469,-7.673416614532471,2.9257144927978516
1728743894354997200,10.701997314453125,5.0685248374938965,-7.711723804473877,4.888959884643555
1728743894365007000,10.712007080078125,4.0078935623168945,-8.037335395812988,6.004657745361328
1728743894375016700,10.7220166015625,2.8107926845550537,-8.875306129455566,6.335057735443115
1728743894385026600,10.732026611328125,1.6974890232086182,-9.576807022094727,6.2201361656188965
1728743894395036400,10.742036376953125,1.115697979927063,-10.050858497619629,5.475539207458496
1728743894405046000,10.7520458984375,0.9888052940368652,-10.216058731079102,4.350264549255371
1728743894415056000,10.762055908203125,1.216254472732544,-10.299856185913086,2.832340717315674
1728743894425065700,10.772065673828125,1.5275006294250488,-10.160991668701172,1.414973258972168
1728743894435075300,10.782075439453125,1.7860745191574097,-9.72285270690918,0.019153613597154617
1728743894445054700,10.7920546875,1.9249382019042969,-9.421183586120605,-1.0271124839782715
1728743894455033900,10.802033935546875,1.7046716213226318,-9.07641887664795,-1.5322890281677246
1728743894465013200,10.81201318359375,1.4748282432556152,-8.820239067077637,-2.032677173614502
1728743894475022800,10.82202294921875,1.6639702320098877,-8.796297073364258,-2.9065608978271484
1728743894485002200,10.832002197265625,2.212242364883423,-8.887276649475098,-3.7876269817352295
1728743894495011800,10.84201171875,3.5458126068115234,-9.856928825378418,-5.856217384338379
1728743894505021700,10.852021728515625,4.989516258239746,-11.645397186279297,-10.194510459899902
1728743894515031600,10.862031494140625,5.408501625061035,-12.682085990905762,-15.672444343566895
1728743894525041200,10.872041259765625,5.272032260894775,-11.978191375732422,-21.2676944732666
1728743894535051000,10.882051025390625,4.707000732421875,-10.680533409118652,-26.946739196777344
1728743894545060900,10.892060791015625,3.643975019454956,-8.844181060791016,-30.818164825439453
1728743894555040000,10.9020400390625,2.346317768096924,-6.619967937469482,-32.19243621826172
1728743894565049900,10.9120498046875,1.290474772453308,-4.228160381317139,-31.452627182006836
1728743894575059500,10.9220595703125,1.1827356815338135,-2.8155810832977295,-30.19327735900879
1728743894585069300,10.9320693359375,1.9847931861877441,-1.8818424940109253,-28.423961639404297
1728743894595079200,10.9420791015625,2.9017724990844727,-0.8355764150619507,-25.742456436157227
1728743894605088800,10.9520888671875,3.620033025741577,-0.586579442024231,-23.365015029907227
1728743894615098600,10.9620986328125,4.252102375030518,-0.569819986820221,-21.784841537475586
1728743894625077800,10.972077880859375,4.685452938079834,0.1388636976480484,-20.506338119506836
1728743894635057200,10.98205712890625,4.584896087646484,0.9720458984375,-19.302053451538086
1728743894645036300,10.992036376953125,4.0533833503723145,1.968033790588379,-17.824831008911133
1728743894655046100,11.002046142578125,3.4093432426452637,3.045424461364746,-16.136919021606445
1728743894665025300,11.012025390625,2.676717519760132,3.689464807510376,-14.528016090393066
1728743894675035100,11.02203515625,1.7741034030914307,4.4532151222229,-12.751518249511719
1728743894685045000,11.032044921875,0.9648633003234863,5.339069843292236,-10.951078414916992
1728743894695054600,11.0420546875,0.2944868206977844,6.495469093322754,-8.937555313110352
1728743894705064400,11.052064453125,-0.011971008032560349,7.682993412017822,-7.01979923248291
1728743894715074000,11.062073974609374,0.17717093229293823,8.760383605957031,-5.281609058380127
1728743894725084000,11.072083984375,0.8044517636299133,9.758766174316406,-3.804386615753174
1728743894735093800,11.08209375,1.53707754611969,10.632649421691895,-2.650381326675415
1728743894745103400,11.092103271484374,1.987187385559082,11.257535934448242,-2.011129379272461
1728743894755082800,11.102082763671875,2.1164743900299072,11.87763500213623,-1.5921441316604614
1728743894765092600,11.112092529296875,1.8962076902389526,11.973402976989746,-1.5418659448623657
1728743894775102200,11.122102294921875,1.4077905416488647,11.650185585021973,-1.8315643072128296
1728743894785112000,11.132112060546875,0.7565677165985107,11.480196952819824,-2.121262788772583
1728743894795121700,11.14212158203125,0.08619125932455063,11.496956825256348,-2.2170307636260986
1728743894805131500,11.152131591796875,-0.47405192255973816,11.437101364135742,-2.341529369354248
1728743894815141400,11.162141357421875,-0.7924807667732239,11.410765647888184,-2.449268341064453
1728743894825151000,11.17215087890625,-0.7086837291717529,11.417947769165039,-2.542642116546631
1728743894835160800,11.182160888671875,-0.33279404044151306,11.219228744506836,-2.6623523235321045
1728743894845140000,11.192139892578124,-0.016759412363171577,10.891223907470703,-2.9975404739379883
1728743894855119400,11.202119384765625,-0.026336219161748886,10.400412559509277,-3.6296098232269287
1728743894865098500,11.212098388671874,-0.4668693244457245,9.627084732055664,-4.280832767486572
1728743894875108400,11.2221083984375,-1.0319008827209473,8.695740699768066,-5.398924827575684
1728743894885087500,11.23208740234375,-1.7334020137786865,7.728483200073242,-6.907271862030029
1728743894895097300,11.242097412109375,-2.671929121017456,6.356605529785156,-8.789113998413086
1728743894905107200,11.252107177734375,-3.248931646347046,4.086902141571045,-12.20803451538086
1728743894915116800,11.26211669921875,-2.9017724990844727,1.335964560508728,-17.293319702148438
1728743894925126700,11.272126708984375,-1.6927006244659424,-0.9385270476341248,-23.060951232910156
1728743894935136500,11.282136474609375,-0.1388636976480484,-1.2521674633026123,-28.356924057006836
1728743894945146000,11.29214599609375,1.158793568611145,-0.47405192255973816,-31.766267776489258
1728743894955156000,11.302156005859375,1.4269442558288574,-0.6344634294509888,-33.006465911865234
1728743894965165800,11.312165771484375,1.2976573705673218,-1.6831238269805908,-32.95139694213867
1728743894975145000,11.32214501953125,1.1252747774124146,-3.9408559799194336,-32.834083557128906
1728743894985185300,11.332185302734375,1.0079588890075684,-6.2847795486450195,-32.00808334350586
1728743894995164400,11.342164306640624,1.3958195447921753,-7.884106159210205,-30.727184295654297
1728743895005174300,11.35217431640625,2.0590133666992188,-8.887276649475098,-29.57796859741211
1728743895015184100,11.36218408203125,2.6216509342193604,-9.294290542602539,-28.12947654724121
1728743895025193700,11.37219384765625,3.2321722507476807,-9.35654067993164,-26.640281677246094
1728743895035203600,11.38220361328125,3.514688014984131,-9.01895809173584,-25.258827209472656
1728743895045213400,11.39221337890625,3.246537446975708,-8.468291282653809,-23.180660247802734
1728743895055223000,11.40222314453125,2.913743495941162,-7.663839817047119,-20.518308639526367
1728743895065233000,11.41223291015625,2.829946517944336,-7.060500621795654,-17.707515716552734
1728743895075242800,11.42224267578125,2.8634653091430664,-6.794744491577148,-14.54716968536377
1728743895085252400,11.43225244140625,2.9903578758239746,-6.94079065322876,-11.432312965393066
1728743895095262200,11.44226220703125,2.9927520751953125,-7.249642848968506,-8.236053466796875
1728743895105271800,11.452271728515624,2.9879636764526367,-7.879317760467529,-5.178658485412598
1728743895115281700,11.46228173828125,2.9544448852539062,-8.851364135742188,-2.343923568725586
1728743895125261000,11.472260986328125,3.1076738834381104,-9.825803756713867,-0.05506663769483566
1728743895135240200,11.482240234375,3.687070608139038,-10.94150161743164,1.6184803247451782
1728743895145219300,11.49221923828125,4.395754337310791,-11.892000198364258,3.021482467651367
1728743895155229200,11.502229248046875,5.011064052581787,-12.528857231140137,4.367023944854736
1728743895165208600,11.51220849609375,5.34625244140625,-12.923900604248047,5.631162166595459
1728743895175218200,11.52221826171875,5.451597213745117,-13.249512672424316,6.651092529296875
1728743895185228000,11.53222802734375,5.2265424728393555,-13.129801750183105,7.29034423828125
1728743895195237600,11.542237548828124,4.714183330535889,-12.9741792678833,6.9024834632873535
1728743895205247500,11.55224755859375,4.314351558685303,-12.78264331817627,5.954379558563232
1728743895215257300,11.56225732421875,3.7924153804779053,-12.521675109863281,4.663905143737793
1728743895225267000,11.572266845703124,3.3662476539611816,-11.939884185791016,3.2154128551483154
1728743895235218000,11.582218017578125,3.0813376903533936,-11.513715744018555,1.647210717201233
1728743895245197000,11.592197021484376,2.5689783096313477,-11.197681427001953,0.33997663855552673
1728743895255207000,11.60220703125,1.8387469053268433,-10.627861022949219,-0.5219359993934631
1728743895265216800,11.612216796875,1.1420341730117798,-9.962273597717285,-1.0103530883789062
1728743895275226400,11.622226318359376,0.5889736413955688,-9.567230224609375,-1.4389152526855469
1728743895285205800,11.632205810546875,0.4644751250743866,-9.14345645904541,-1.941697597503662
1728743895295215400,11.64221533203125,1.161187767982483,-9.148244857788086,-3.1004912853240967
1728743895305225200,11.65222509765625,2.5737667083740234,-10.553641319274902,-6.191405773162842
1728743895315235000,11.662235107421875,3.5913026332855225,-12.665327072143555,-11.63342571258545
1728743895325214200,11.672214111328126,3.5745432376861572,-13.608642578125,-17.43218231201172
1728743895335224000,11.68222412109375,2.4157495498657227,-13.19205093383789,-22.869415283203125
1728743895345233700,11.692233642578126,0.5793967843055725,-12.100295066833496,-27.799076080322266
1728743895355243500,11.702243408203126,-1.4844050407409668,-10.338163375854492,-31.282638549804688
1728743895365222700,11.71222265625,-3.0885202884674072,-8.006210327148438,-32.75028610229492
1728743895375232500,11.722232421875,-3.4380736351013184,-5.664681434631348,-32.81732177734375
1728743895385242400,11.732242431640625,-2.47560453414917,-3.7612907886505127,-32.067935943603516
1728743895395252000,11.742251953125,-1.0582371950149536,-2.5689783096313477,-30.959423065185547
1728743895405231400,11.7522314453125,0.4429273009300232,-2.0207061767578125,-29.52290153503418
1728743895415241200,11.7622412109375,1.623268723487854,-1.6974890232086182,-27.94991111755371
1728743895425250800,11.772250732421876,2.6839001178741455,-1.2832920551300049,-26.7216854095459
1728743895435260700,11.7822607421875,3.5194764137268066,-0.31124621629714966,-25.34501838684082
1728743895445239800,11.79223974609375,3.9456443786621094,0.9169792532920837,-23.63077163696289
1728743895455249700,11.802249755859375,4.0964789390563965,2.4827871322631836,-21.593305587768555
1728743895465259500,11.812259521484375,3.801992416381836,4.091690540313721,-19.266141891479492
1728743895475269000,11.82226904296875,2.978386878967285,5.468356609344482,-16.740259170532227
1728743895485248500,11.83224853515625,2.2361843585968018,6.787561893463135,-14.111424446105957
1728743895495258000,11.842258056640626,1.845929503440857,8.26239013671875,-11.355698585510254
1728743895505268000,11.85226806640625,1.9033904075622559,9.593565940856934,-8.746018409729004
1728743895515277800,11.86227783203125,2.4444799423217773,10.714052200317383,-6.490680694580078
1728743895525257000,11.872257080078125,3.227383852005005,11.57596492767334,-4.613626480102539
1728743895535266800,11.882266845703125,3.9911341667175293,12.255918502807617,-3.066972494125366
1728743895545276400,11.8922763671875,4.594472885131836,12.90714168548584,-1.7070658206939697
1728743895555286300,11.902286376953125,4.754884719848633,13.136984825134277,-0.7948749661445618
1728743895565265400,11.912265380859376,4.491522312164307,12.962207794189453,-0.5746083855628967
1728743895575275300,11.922275146484376,3.7684733867645264,12.662932395935059,-0.5889736413955688
1728743895585285000,11.93228515625,2.8778305053710938,12.418724060058594,-0.7637503147125244
1728743895595294700,11.942294677734376,1.7860745191574097,11.887211799621582,-1.3407529592514038
1728743895605274000,11.952274169921875,0.9241618514060974,11.238382339477539,-1.8626888990402222
1728743895615283700,11.96228369140625,0.49559974670410156,10.685321807861328,-2.1380221843719482
1728743895625293600,11.97229345703125,0.49799394607543945,10.278307914733887,-2.1811177730560303
1728743895635303400,11.982303466796875,0.8595184087753296,9.77791976928711,-2.190694570541382
1728743895645313000,11.99231298828125,1.4101848602294922,9.294290542602539,-2.2816741466522217
1728743895655292400,12.00229248046875,1.7836803197860718,8.856152534484863,-2.382230758666992
1728743895665302000,12.012302001953126,1.8148049116134644,8.288725852966309,-2.6623523235321045
1728743895675281400,12.022281494140625,1.5322890281677246,7.536946773529053,-3.268085241317749
1728743895685291300,12.032291259765625,1.0438719987869263,6.710947513580322,-4.288015365600586
1728743895695270400,12.0422705078125,0.28969839215278625,5.633556365966797,-6.04775333404541
1728743895705280300,12.0522802734375,-0.7158663272857666,3.9480385780334473,-8.686163902282715
1728743895715259400,12.06225927734375,-0.7038952708244324,1.1994950771331787,-12.825738906860352
1728743895725269200,12.072269287109375,0.38546648621559143,-1.8124107122421265,-17.954118728637695
1728743895735248400,12.082248291015626,2.8203697204589844,-4.659116744995117,-23.898921966552734
1728743895745258200,12.09225830078125,5.571307182312012,-5.7772088050842285,-28.943504333496094
1728743895755237400,12.1022373046875,6.845022678375244,-5.540182590484619,-31.507694244384766
1728743895765247200,12.112247314453125,6.208165168762207,-5.889736175537109,-32.26186752319336
1728743895775226400,12.122226318359376,4.594472885131836,-7.362170219421387,-32.86042022705078
1728743895785236200,12.132236328125,3.292027235031128,-9.828198432922363,-33.092655181884766
1728743895795215400,12.14221533203125,3.069366693496704,-12.131420135498047,-32.04878234863281
1728743895805225200,12.15222509765625,3.0190882682800293,-13.467384338378906,-29.551631927490234
1728743895815204400,12.162204345703126,2.9544448852539062,-13.903129577636719,-26.448745727539062
1728743895825214200,12.172214111328126,2.9975404739379883,-14.247894287109375,-23.51824378967285
1728743895835193600,12.182193603515625,2.4468741416931152,-13.73314094543457,-20.03946876525879
1728743895845203200,12.192203125,1.460463047027588,-12.895170211791992,-16.084247589111328
1728743895855182600,12.2021826171875,0.4381389021873474,-11.872846603393555,-12.227188110351562
1728743895865192200,12.212192138671876,0.043095629662275314,-10.536881446838379,-9.08838939666748
1728743895875171600,12.222171630859375,-0.12210428714752197,-9.105149269104004,-6.746860504150391
1728743895885181200,12.23218115234375,-0.21787235140800476,-8.130708694458008,-4.879383087158203
1728743895895191000,12.24219091796875,-0.10295066982507706,-7.314286231994629,-3.4404678344726562
1728743895905170200,12.252170166015626,0.26815059781074524,-7.024587631225586,-2.2840683460235596
1728743895915180000,12.262179931640626,0.6392518281936646,-7.110779285430908,-1.0797849893569946
1728743895925190000,12.27218994140625,0.9409212470054626,-6.995857238769531,0.35434186458587646
1728743895935199500,12.282199462890626,1.2449848651885986,-7.156269073486328,1.455674648284912
1728743895945179000,12.292178955078125,1.558625340461731,-7.16584587097168,2.3487119674682617
1728743895955188500,12.3021884765625,1.7621324062347412,-7.003039836883545,3.3734302520751953
1728743895965198300,12.3121982421875,1.6855180263519287,-6.823474884033203,4.189853191375732
1728743895975208200,12.322208251953125,1.4748282432556152,-6.67982292175293,4.903325080871582
1728743895985187300,12.332187255859376,1.1563993692398071,-6.327875137329102,5.240907669067383
1728743895995197200,12.342197265625,0.7206547260284424,-5.875370979309082,5.106832027435303
1728743896005207000,12.35220703125,0.2968810200691223,-5.525817394256592,4.484339714050293
1728743896015216600,12.362216552734376,0.040701430290937424,-5.188235282897949,3.5865142345428467
1728743896025196000,12.372196044921875,-0.06224924325942993,-4.7620673179626465,2.5282769203186035
1728743896035205600,12.38220556640625,-0.040701430290937424,-4.005499362945557,1.5322890281677246
1728743896045215500,12.392215576171875,0.363918662071228,-3.6583402156829834,-0.11013327538967133
1728743896055225300,12.402225341796875,0.4908113479614258,-3.581725835800171,-1.8698714971542358
1728743896065235000,12.41223486328125,0.22744916379451752,-2.875436305999756,-2.5019407272338867
1728743896075214300,12.42221435546875,0.2346317619085312,-2.1092917919158936,-2.8371291160583496
1728743896085224000,12.432223876953126,0.43335050344467163,-2.032677173614502,-3.8283286094665527
1728743896095233800,12.44223388671875,1.0342950820922852,-2.5019407272338867,-5.762843608856201
1728743896105213000,12.452212890625,2.580949544906616,-3.907337188720703,-9.514557838439941
1728743896115222800,12.462222900390625,3.641580820083618,-5.942408561706543,-14.72912883758545
1728743896125232600,12.472232666015625,3.5170822143554688,-6.653486728668213,-19.158401489257812
1728743896135211800,12.482211669921876,3.2968156337738037,-6.229712963104248,-22.088905334472656
1728743896145221600,12.4922216796875,3.1268274784088135,-5.588066577911377,-24.519020080566406
1728743896155200800,12.50220068359375,2.6647465229034424,-4.774038314819336,-25.665842056274414
1728743896165180200,12.51218017578125,2.2146365642547607,-3.914519786834717,-25.665842056274414
1728743896175189800,12.522189697265626,2.300827741622925,-3.375824451446533,-25.191789627075195
1728743896185199600,12.53219970703125,2.8443117141723633,-3.1531636714935303,-24.641124725341797
1728743896195209500,12.54220947265625,3.5721490383148193,-3.0573954582214355,-23.549367904663086
1728743896205188600,12.552188720703125,3.9169139862060547,-3.2369606494903564,-22.00989532470703
1728743896215198500,12.562198486328125,4.412513732910156,-3.335123062133789,-20.53746223449707
1728743896225208000,12.5722080078125,4.709394931793213,-3.155557870864868,-19.534292221069336
1728743896235218000,12.582218017578125,4.8722004890441895,-2.6001031398773193,-18.392257690429688
1728743896245197000,12.592197021484376,4.93923807144165,-1.5658079385757446,-16.857574462890625
1728743896255207000,12.60220703125,4.831499099731445,-0.31842881441116333,-15.030797958374023
1728743896265216800,12.612216796875,4.613626480102539,0.9241618514060974,-12.904747009277344
1728743896275226400,12.622226318359376,4.316745758056641,1.9369091987609863,-10.788272857666016
1728743896285205800,12.632205810546875,3.928884983062744,2.3918075561523438,-9.033323287963867
1728743896295215400,12.64221533203125,3.380612850189209,2.671929121017456,-7.374141216278076
1728743896305194800,12.65219482421875,2.9017724990844727,3.2082302570343018,-5.544970989227295
1728743896315204400,12.662204345703126,2.7533318996429443,3.778050184249878,-3.883395195007324
1728743896325183700,12.672183837890625,2.8395233154296875,4.508281707763672,-1.9321208000183105
1728743896335193600,12.682193603515625,3.272873640060425,5.193023681640625,-0.2849099934101105
1728743896345203200,12.692203125,3.8762125968933105,5.896918773651123,0.6200982332229614
1728743896355213000,12.702213134765625,4.479551315307617,6.67982292175293,1.0821791887283325
1728743896365192200,12.712192138671876,4.831499099731445,7.534552574157715,1.5658079385757446
1728743896375202000,12.7222021484375,4.891354084014893,8.11634349822998,1.8100165128707886
1728743896385212000,12.7322119140625,4.707000732421875,8.492233276367188,1.9919757843017578
1728743896395221500,12.742221435546876,4.28322696685791,8.547300338745117,1.9393033981323242
1728743896405201000,12.752200927734375,3.7253777980804443,8.492233276367188,1.4748282432556152
1728743896415210500,12.76221044921875,2.940079689025879,8.4108304977417,0.7637503147125244
1728743896425220400,12.772220458984375,1.9991583824157715,8.655038833618164,0.23702596127986908
1728743896435230200,12.782230224609375,1.2449848651885986,8.774748802185059,-0.9576807022094727
1728743896445209300,12.792209228515626,0.4644751250743866,9.169792175292969,-1.778891921043396
1728743896455219200,12.80221923828125,-0.06224924325942993,9.5624418258667,-2.736572504043579
1728743896465228800,12.812228759765626,-0.38546648621559143,9.763554573059082,-3.8594532012939453
1728743896475238700,12.82223876953125,-0.6105214357376099,9.63187313079834,-5.061342239379883
1728743896485217800,12.8322177734375,-0.8212111592292786,8.89685344696045,-6.655880928039551
1728743896495227600,12.8422275390625,-0.8331822156906128,7.151480674743652,-9.509769439697266
1728743896505237500,12.852237548828125,-0.27054479718208313,4.812345504760742,-13.888764381408691
