time,seconds_elapsed,z,y,x
1728747490875617500,0.058617431640625,9.96945571899414,2.7892448902130127,-0.9289502501487732
1728747490885596700,0.0685966796875,9.976638793945312,2.738966703414917,-0.9552865028381348
1728747490895576000,0.078576171875,9.959878921508789,2.8155810832977295,-0.9576807022094727
1728747490905555200,0.08855517578125,10.204087257385254,2.9951462745666504,-0.8619126081466675
1728747490915534600,0.09853466796875,10.33098030090332,3.0861260890960693,-0.7661445140838623
1728747490925513700,0.108513671875,10.213664054870605,3.112462282180786,-0.727837324142456
1728747490935523600,0.118523681640625,10.02691650390625,3.0597896575927734,-0.7757213711738586
1728747490945502700,0.128502685546875,9.749189376831055,2.980781078338623,-0.7924807667732239
1728747490955481900,0.13848193359375,9.516951560974121,2.9735984802246094,-0.7422025203704834
1728747490965491700,0.14849169921875,9.684545516967773,2.9951462745666504,-0.7469909191131592
1728747490975501600,0.15850146484375,9.988609313964844,3.0119056701660156,-0.7589619159698486
1728747490985511200,0.16851123046875,10.120290756225586,3.1052796840667725,-0.7493851184844971
1728747490995490600,0.178490478515625,10.170568466186523,3.2082302570343018,-0.6607996821403503
1728747491005469700,0.1884697265625,10.199298858642578,3.1866824626922607,-0.6057330369949341
1728747491015449000,0.198448974609375,10.046070098876953,3.090914487838745,-0.6368576288223267
1728747491025428200,0.20842822265625,9.995792388916016,2.9257144927978516,-0.6727706789970398
1728747491035407600,0.21840771484375,10.000580787658691,2.7748796939849854,-0.7709329724311829
1728747491045386800,0.22838671875,9.883264541625977,2.7317841053009033,-0.8930372595787048
1728747491055366000,0.238365966796875,9.873687744140625,2.8179752826690674,-1.0007762908935547
1728747491065345300,0.24834521484375,9.830592155456543,3.043030261993408,-1.0055646896362305
1728747491075324400,0.258324462890625,9.619902610778809,3.28963303565979,-0.9409212470054626
1728747491085303800,0.2683037109375,9.433155059814453,3.5458126068115234,-0.7733271718025208
1728747491095283000,0.278282958984375,9.402029991149902,3.7038300037384033,-0.6177040338516235
1728747491105323300,0.2883232421875,9.378087997436523,3.7469255924224854,-0.6129156351089478
1728747491115302700,0.298302734375,9.531316757202148,3.6942532062530518,-0.5363011956214905
1728747491125281800,0.30828173828125,9.952696800231934,3.509899616241455,-0.6177040338516235
1728747491135261000,0.318260986328125,10.20648193359375,3.265691041946411,-0.8930372595787048
1728747491145270800,0.328270751953125,10.398017883300781,3.0550012588500977,-1.0558429956436157
1728747491155280600,0.33828076171875,10.498574256896973,2.9017724990844727,-1.1563993692398071
1728747491165290200,0.348290283203125,10.366893768310547,2.7940332889556885,-1.2114660739898682
1728747491175269600,0.35826953125,9.998186111450195,2.75812029838562,-1.0678139925003052
1728747491185248800,0.368248779296875,9.734824180603027,2.63362193107605,-0.9600749015808105
1728747491195228200,0.378228271484375,9.421183586120605,2.5474305152893066,-1.0127472877502441
1728747491205268500,0.3882685546875,9.100360870361328,2.513911724090576,-0.8092401623725891
1728747491215247600,0.39824755859375,9.136273384094238,2.5234885215759277,-0.6488286852836609
1728747491225226800,0.408226806640625,9.097966194152832,2.494758129119873,-0.6129156351089478
1728747491235206100,0.4182060546875,9.01895809173584,2.4803929328918457,-0.5434837937355042
1728747491245185300,0.428185302734375,9.064447402954102,2.434903144836426,-0.507570743560791
1728747491255195100,0.438195068359375,8.983044624328613,2.2625205516815186,-0.5482721924781799
1728747491265205000,0.448205078125,8.973467826843262,2.0254945755004883,-0.6057330369949341
1728747491275184000,0.45818408203125,9.030928611755371,1.8291701078414917,-0.6655880808830261
1728747491285163300,0.468163330078125,9.14345645904541,1.6687586307525635,-0.6560112833976746
1728747491295173000,0.478173095703125,9.428366661071777,1.4963760375976562,-0.6320692300796509
1728747491305183000,0.488182861328125,9.603142738342285,1.316810965538025,-0.727837324142456
1728747491315162000,0.498162109375,9.801861763000488,1.213860273361206,-0.8451532125473022
1728747491325141500,0.5081416015625,9.876082420349121,1.2042834758758545,-0.9313444495201111
1728747491335120600,0.51812060546875,9.931148529052734,1.2665326595306396,-0.8427590131759644
1728747491345130500,0.528130615234375,10.065223693847656,1.3287819623947144,-0.6584054827690125
1728747491355140000,0.53814013671875,10.11550235748291,1.3287819623947144,-0.5291185975074768
1728747491365119500,0.548119384765625,9.904812812805176,1.400607943534851,-0.43095630407333374
1728747491375098600,0.5580986328125,9.648633003234863,1.6424223184585571,-0.20350714027881622
1728747491385078000,0.568078125,9.342175483703613,1.9033904075622559,0.09816227108240128
1728747491395118300,0.578118408203125,9.071630477905273,2.099714994430542,0.3734954595565796
1728747491405128000,0.5881279296875,8.975862503051758,2.2385785579681396,0.4644751250743866
1728747491415107300,0.598107421875,8.968679428100586,2.2649147510528564,0.47644615173339844
1728747491425086500,0.60808642578125,9.294290542602539,2.0829553604125977,0.4572925269603729
1728747491435065600,0.618065673828125,9.399636268615723,1.9177556037902832,0.3471592366695404
1728747491445075500,0.628075439453125,9.320627212524414,1.8626888990402222,0.29209262132644653
1728747491455085300,0.638085205078125,9.239224433898926,1.7764976024627686,0.24181437492370605
1728747491465064400,0.648064453125,9.2033109664917,1.745373010635376,0.23942017555236816
1728747491475043800,0.6580439453125,9.17936897277832,1.7405846118927002,0.21787235140800476
1728747491485023000,0.66802294921875,9.11233139038086,1.6855180263519287,0.15322890877723694
1728747491495002400,0.67800244140625,9.004592895507812,1.7621324062347412,-0.011971008032560349
1728747491505012000,0.688011962890625,8.78193187713623,1.9321208000183105,-0.06703764945268631
1728747491515021800,0.698021728515625,8.710105895996094,2.1523873805999756,-0.07900865375995636
1728747491525001000,0.7080009765625,8.554482460021973,2.3965959548950195,-0.1149216815829277
1728747491534980400,0.71798046875,8.413225173950195,2.7437551021575928,0.026336219161748886
1728747491544959500,0.72795947265625,8.367734909057617,3.0885202884674072,0.20350714027881622
1728747491554939000,0.73793896484375,8.705317497253418,3.406949043273926,0.4213795065879822
1728747491564918000,0.74791796875,8.99740982055664,3.5913026332855225,0.47165772318840027
1728747491574897200,0.757897216796875,9.188945770263672,3.663128614425659,0.3734954595565796
1728747491584876500,0.76787646484375,9.3828763961792,3.7229835987091064,0.1388636976480484
1728747491594855700,0.777855712890625,9.41639518737793,3.8067808151245117,0.1412578970193863
1728747491604865500,0.787865478515625,9.220070838928223,3.9001545906066895,0.12928688526153564
1728747491614844700,0.7978447265625,9.059659004211426,3.909731388092041,0.10055647045373917
1728747491624824000,0.807823974609375,8.791508674621582,4.027047157287598,-0.026336219161748886
1728747491634803200,0.81780322265625,8.633491516113281,4.180276393890381,-0.07422025501728058
1728747491644782600,0.827782470703125,8.549694061279297,4.278438568115234,-0.14604631066322327
1728747491654792200,0.837792236328125,8.394071578979492,4.242525577545166,-0.31124621629714966
1728747491664771600,0.847771484375,8.269572257995605,4.2329487800598145,-0.43335050344467163
1728747491674750700,0.857750732421875,8.08043098449707,4.333505153656006,-0.48602294921875
1728747491684791000,0.867791015625,7.953537940979004,4.558559894561768,-0.395043283700943
1728747491694770400,0.8777705078125,8.111555099487305,4.747702121734619,-0.24181437492370605
1728747491704749600,0.88774951171875,8.29830265045166,4.855441093444824,-0.14844051003456116
1728747491714728700,0.897728759765625,8.513781547546387,4.898536682128906,0.043095629662275314
1728747491724738600,0.907738525390625,8.762778282165527,4.7836151123046875,0.28969839215278625
1728747491734717700,0.9177177734375,8.882488250732422,4.529829502105713,0.43095630407333374
1728747491744697000,0.927697021484375,8.942343711853027,4.144362926483154,0.4596867263317108
1728747491754707000,0.93770703125,8.860940933227539,3.794809579849243,0.5410895943641663
1728747491764686000,0.94768603515625,8.62630844116211,3.471592426300049,0.5889736413955688
1728747491774665200,0.957665283203125,8.283937454223633,3.19865345954895,0.6775590777397156
1728747491784675000,0.967675048828125,8.04691219329834,2.7964274883270264,0.6033388376235962
1728747491794715400,0.97771533203125,8.224082946777344,2.298433542251587,0.38307225704193115
1728747491804694500,0.987694580078125,8.449137687683105,1.9297266006469727,0.21547815203666687
1728747491814704400,0.997704345703125,8.516175270080566,1.766920804977417,0.1364694982767105
1728747491824714200,1.00771435546875,8.595184326171875,1.721431016921997,0.18914192914962769
1728747491834693400,1.017693359375,8.401253700256348,1.7334020137786865,0.304063618183136
1728747491844672800,1.0276728515625,8.121131896972656,1.7190368175506592,0.3208230137825012
1728747491854652000,1.03765185546875,8.08282470703125,1.6136919260025024,0.19871874153614044
1728747491864631000,1.047631103515625,8.279149055480957,1.4772224426269531,0.11971008777618408
1728747491874610400,1.0576103515625,8.53293514251709,1.5179238319396973,0.031124621629714966
1728747491884589600,1.067589599609375,9.282320022583008,1.721431016921997,0.1149216815829277
1728747491894569000,1.07756884765625,10.043676376342773,1.9536685943603516,0.1364694982767105
1728747491904609300,1.087609375,10.527304649353027,2.169146776199341,0.031124621629714966
1728747491914588400,1.09758837890625,10.702081680297852,2.2409727573394775,0.031124621629714966
1728747491924567600,1.107567626953125,10.613495826721191,2.2170307636260986,-0.040701430290937424
1728747491934547000,1.117546875,10.433931350708008,2.2170307636260986,-0.11971008777618408
1728747491944526000,1.127526123046875,10.414777755737305,2.319981336593628,-0.1843535304069519
1728747491954505500,1.13750537109375,10.733205795288086,2.5091233253479004,-0.31842881441116333
1728747491964515000,1.14751513671875,10.876858711242676,2.671929121017456,-0.42377370595932007
1728747491974525000,1.15752490234375,10.826580047607422,2.6839001178741455,-0.49320554733276367
1728747491984534800,1.16753466796875,10.5344877243042,2.580949544906616,-0.6153098344802856
1728747491994514000,1.177513916015625,10.232817649841309,2.5019407272338867,-0.7206547260284424
1728747492004493300,1.187493408203125,10.038887977600098,2.3487119674682617,-0.6607996821403503
1728747492014503000,1.1975029296875,9.852140426635742,2.1523873805999756,-0.569819986820221
1728747492024543200,1.207543212890625,9.710882186889648,2.097320795059204,-0.4429273009300232
1728747492034522600,1.217522705078125,9.86650562286377,1.9632453918457031,-0.3758896589279175
1728747492044501800,1.227501708984375,10.02691650390625,1.9105730056762695,-0.42856210470199585
1728747492054481000,1.23748095703125,10.20648193359375,1.9752163887023926,-0.3878606855869293
1728747492064460300,1.247460205078125,10.42195987701416,1.944091796875,-0.12689268589019775
1728747492074439400,1.257439453125,10.5344877243042,1.8171991109848022,-0.09576806426048279
1728747492084479700,1.267479736328125,10.5344877243042,1.6711528301239014,0.05267243832349777
1728747492094459100,1.277459228515625,10.575188636779785,1.5466543436050415,0.07900865375995636
1728747492104438300,1.287438232421875,10.94150161743164,1.525106430053711,-0.19393034279346466
1728747492114417400,1.29741748046875,11.130643844604492,1.501164436340332,-0.3232172429561615
1728747492124427300,1.30742724609375,11.188104629516602,1.4700398445129395,-0.40701428055763245
1728747492134437000,1.31743701171875,11.346121788024902,1.5131354331970215,-0.6607996821403503
1728747492144416300,1.327416259765625,11.587936401367188,1.6160861253738403,-0.7829039692878723
1728747492154395600,1.337395751953125,11.463438034057617,1.8100165128707886,-0.6033388376235962
1728747492164374800,1.347374755859375,11.008539199829102,2.013523578643799,-0.3663128614425659
1728747492174354200,1.357354248046875,10.251971244812012,2.205059766769409,-0.22744916379451752
1728747492184394200,1.367394287109375,9.674968719482422,2.31758713722229,-0.1412578970193863
1728747492194373600,1.37737353515625,9.217676162719727,2.367865562438965,-0.14844051003456116
1728747492204352800,1.387352783203125,8.767566680908203,2.4803929328918457,-0.28969839215278625
1728747492214332200,1.397332275390625,8.446743965148926,2.719813108444214,-0.21308395266532898
1728747492224341800,1.407341796875,8.288725852966309,3.0573954582214355,-0.13168109953403473
1728747492234290700,1.417290771484375,7.967903137207031,3.3925838470458984,-0.028730420395731926
1728747492244300300,1.42730029296875,7.728483200073242,3.708618402481079,0.09816227108240128
1728747492254310100,1.43731005859375,7.7883381843566895,3.8379054069519043,0.2585737705230713
1728747492264319700,1.44731982421875,7.920019149780273,3.713406801223755,0.18914192914962769
1728747492274299100,1.457299072265625,7.996633529663086,3.4093432426452637,-0.026336219161748886
1728747492284278300,1.4672783203125,8.152256965637207,3.093308687210083,-0.2753331959247589
1728747492294257700,1.477257568359375,8.362946510314941,2.8347349166870117,-0.5363011956214905
1728747492304236800,1.48723681640625,8.497021675109863,2.738966703414917,-0.7924807667732239
1728747492314216200,1.49721630859375,8.621520042419434,2.734178304672241,-0.9313444495201111
1728747492324195300,1.5071953125,8.947132110595703,2.873042106628418,-1.0797849893569946
1728747492334174700,1.5171748046875,9.227252960205078,3.136404275894165,-1.1348515748977661
1728747492344153900,1.52715380859375,9.442731857299805,3.4356794357299805,-1.1300631761550903
1728747492354163700,1.537163818359375,9.72285270690918,3.6822822093963623,-1.1228805780410767
1728747492364173300,1.54717333984375,9.967061996459961,3.8570590019226074,-1.1492167711257935
1728747492374152700,1.557152587890625,10.177751541137695,3.9264907836914062,-1.2186486721038818
1728747492384131800,1.5671318359375,10.24239444732666,3.8977603912353516,-1.3192051649093628
1728747492394141700,1.5771416015625,10.041281700134277,3.869029998779297,-1.4293384552001953
1728747492404120800,1.587120849609375,9.75637149810791,3.8307228088378906,-1.455674648284912
1728747492414100200,1.597100341796875,9.603142738342285,3.7924153804779053,-1.5466543436050415
1728747492424079400,1.607079345703125,9.66299819946289,3.7852327823638916,-1.5897499322891235
1728747492434089200,1.617089111328125,9.68933391571045,3.801992416381836,-1.5490485429763794
1728747492444068400,1.627068359375,9.636661529541016,3.8714241981506348,-1.4844050407409668
1728747492454047700,1.6370478515625,9.461885452270508,3.9480385780334473,-1.4532804489135742
1728747492464027000,1.64702685546875,9.464279174804688,3.9432501792907715,-1.4700398445129395
1728747492474036700,1.65703662109375,9.8784761428833,3.93367338180542,-1.6400281190872192
1728747492484015900,1.667015869140625,9.682151794433594,4.264073371887207,-1.6711528301239014
1728747492493995300,1.676995361328125,9.385271072387695,4.170699596405029,-1.6519991159439087
1728747492504035300,1.687035400390625,9.646238327026367,3.6727054119110107,-1.867477297782898
1728747492514014700,1.6970146484375,10.108319282531738,3.028665065765381,-2.03507137298584
1728747492523993900,1.706993896484375,10.041281700134277,2.609679937362671,-2.1571757793426514
1728747492533973200,1.71697314453125,10.072406768798828,2.3989901542663574,-2.123656988143921
1728747492543982800,1.72698291015625,10.105925559997559,2.3798365592956543,-1.8842366933822632
1728747492553992700,1.73699267578125,9.914389610290527,2.4372973442077637,-1.6639702320098877
1728747492564002600,1.74700244140625,9.68694019317627,2.7222073078155518,-1.482010841369629
1728747492573981700,1.756981689453125,9.667786598205566,2.8155810832977295,-1.3407529592514038
1728747492583961000,1.766961181640625,9.658209800720215,2.80361008644104,-1.2976573705673218
1728747492593940200,1.776940185546875,9.639056205749512,2.80361008644104,-1.2689268589019775
1728747492603919400,1.78691943359375,9.75637149810791,2.7964274883270264,-1.3048399686813354
1728747492613898800,1.796898681640625,9.830592155456543,2.7892448902130127,-1.4245500564575195
1728747492623878000,1.8068779296875,9.854534149169922,2.80361008644104,-1.45806884765625
1728747492633826800,1.816826904296875,9.765948295593262,2.7892448902130127,-1.4772224426269531
1728747492643867000,1.826866943359375,9.526528358459473,2.7676970958709717,-1.4484920501708984
1728747492653846300,1.83684619140625,9.366117477416992,2.829946517944336,-1.4173674583435059
1728747492663825400,1.846825439453125,9.306262016296387,3.0334534645080566,-1.37906014919281
1728747492673804800,1.8568046875,9.301473617553711,3.222595453262329,-1.2761094570159912
1728747492683784000,1.866783935546875,9.366117477416992,3.313575267791748,-1.2832920551300049
1728747492693763300,1.876763427734375,9.387664794921875,3.31118106842041,-1.290474772453308
1728747492703773000,1.88677294921875,9.334992408752441,3.2752678394317627,-1.3527239561080933
1728747492713752300,1.89675244140625,9.394847869873047,3.24414324760437,-1.455674648284912
1728747492723731500,1.9067314453125,9.569623947143555,3.270479440689087,-1.5059528350830078
1728747492733741300,1.9167412109375,9.684545516967773,3.292027235031128,-1.5131354331970215
1728747492743720400,1.926720458984375,9.761159896850586,3.359065055847168,-1.556231141090393
1728747492753699800,1.936699951171875,9.641449928283691,3.4356794357299805,-1.5849615335464478
1728747492763679000,1.946678955078125,9.461885452270508,3.423708438873291,-1.5490485429763794
1728747492773688800,1.956688720703125,9.165003776550293,3.3423056602478027,-1.5418659448623657
1728747492783668000,1.96666796875,8.329427719116211,3.2585084438323975,-1.5490485429763794
1728747492793647400,1.9766474609375,8.772355079650879,3.2106244564056396,-1.5107412338256836
1728747492803687400,1.9866875,9.387664794921875,3.1675288677215576,-1.5203180313110352
1728747492813666800,1.996666748046875,10.019734382629395,3.19865345954895,-1.5203180313110352
1728747492823646000,2.00664599609375,10.347740173339844,3.1723172664642334,-1.522712230682373
1728747492833625300,2.016625244140625,10.26394271850586,3.155557870864868,-1.460463047027588
1728747492843604500,2.0266044921875,9.765948295593262,3.0789434909820557,-1.414973258972168
1728747492853584000,2.036583984375,9.255983352661133,3.0190882682800293,-1.3503297567367554
1728747492863593500,2.046593505859375,8.949525833129883,2.9328970909118652,-1.2761094570159912
1728747492873603300,2.056603271484375,8.995016098022461,2.8802247047424316,-1.1803414821624756
1728747492883582500,2.06658251953125,9.208099365234375,2.853888511657715,-1.094150185585022
1728747492893561900,2.076561767578125,9.41639518737793,2.765302896499634,-1.094150185585022
1728747492903541000,2.086541015625,9.41639518737793,2.6623523235321045,-1.2234370708465576
1728747492913520400,2.096520263671875,9.136273384094238,2.6360161304473877,-1.280897855758667
1728747492923499500,2.10649951171875,7.649474620819092,2.7724854946136475,-1.278503656387329
1728747492933479000,2.11647900390625,8.523358345031738,3.0095114707946777,-1.4748282432556152
1728747492943458000,2.1264580078125,9.904812812805176,3.3039982318878174,-1.5969325304031372
1728747492953437200,2.136437255859375,11.006145477294922,3.466804027557373,-1.4772224426269531
1728747492963477500,2.1464775390625,11.293449401855469,3.361459255218506,-1.4915876388549805
1728747492973457000,2.156456787109375,10.795455932617188,3.138798475265503,-1.4293384552001953
1728747492983436000,2.16643603515625,10.122684478759766,3.0621838569641113,-1.316810965538025
1728747492993446000,2.17644580078125,9.5624418258667,3.0119056701660156,-1.2090718746185303
1728747493003425000,2.186425048828125,9.141061782836914,3.0550012588500977,-1.1013327836990356
1728747493013404400,2.196404296875,8.916007041931152,3.3039982318878174,-0.9696516990661621
1728747493023414000,2.2064140625,8.96389102935791,3.464409828186035,-0.8954314589500427
1728747493033393400,2.216393310546875,9.27034854888916,3.687070608139038,-0.8882488012313843
1728747493043372500,2.22637255859375,9.17697525024414,3.5170822143554688,-0.9720458984375
1728747493053352000,2.23635205078125,8.96389102935791,3.354276657104492,-1.091755986213684
1728747493063361500,2.246361572265625,8.875306129455566,3.222595453262329,-1.113303780555725
1728747493073341000,2.2563408203125,8.999804496765137,3.1962592601776123,-1.1204863786697388
1728747493083320000,2.266320068359375,9.07641887664795,3.251325845718384,-1.139639973640442
1728747493093360400,2.2763603515625,9.232041358947754,3.4332852363586426,-1.015141487121582
1728747493103339500,2.286339599609375,9.394847869873047,3.579331636428833,-0.8930372595787048
1728747493113319000,2.29631884765625,9.488221168518066,3.627215623855591,-0.8355764150619507
1728747493123359200,2.306359130859375,9.454702377319336,3.557783842086792,-0.8858546018600464
1728747493133338400,2.31633837890625,9.418789863586426,3.445256233215332,-0.9648633003234863
1728747493143317800,2.32631787109375,9.32302188873291,3.380612850189209,-1.0007762908935547
1728747493153297000,2.336296875,9.318233489990234,3.383007049560547,-0.9744400978088379
1728747493163337200,2.346337158203125,9.478644371032715,3.4380736351013184,-0.8882488012313843
1728747493173316400,2.35631640625,9.600749015808105,3.464409828186035,-0.8212111592292786
1728747493183295700,2.366295654296875,9.641449928283691,3.4356794357299805,-0.7613561153411865
1728747493193305300,2.376305419921875,9.727641105651855,3.313575267791748,-0.6967126727104187
1728747493203254300,2.386254150390625,9.706093788146973,3.1100680828094482,-0.7709329724311829
1728747493213264000,2.396263916015625,9.715670585632324,2.8610711097717285,-0.871489405632019
1728747493223243300,2.4062431640625,9.761159896850586,2.7054479122161865,-0.9816226959228516
1728747493233222400,2.416222412109375,9.677363395690918,2.760514497756958,-0.9457096457481384
1728747493243201800,2.426201904296875,9.804255485534668,2.964021682739258,-0.6943184733390808
1728747493253181000,2.436180908203125,9.931148529052734,3.160346269607544,-0.44532153010368347
1728747493263160300,2.446160400390625,10.002974510192871,3.2082302570343018,-0.38307225704193115
1728747493273139500,2.456139404296875,10.038887977600098,3.138798475265503,-0.363918662071228
1728747493283179800,2.4661796875,10.139444351196289,2.9281086921691895,-0.4118026793003082
1728747493293159000,2.476158935546875,10.194510459899902,2.784456491470337,-0.4884171485900879
1728747493303138300,2.48613818359375,10.3549222946167,2.674323320388794,-0.3902548849582672
1728747493313117400,2.496117431640625,10.445901870727539,2.5234885215759277,-0.4213795065879822
1728747493323096800,2.506096923828125,10.469843864440918,2.3750481605529785,-0.5027823448181152
1728747493333076000,2.516075927734375,10.44350814819336,2.315192937850952,-0.5913678407669067
1728747493343055000,2.52605517578125,10.383652687072754,2.3032219409942627,-0.5267243981361389
1728747493353034500,2.536034423828125,10.376470565795898,2.3127987384796143,-0.44532153010368347
1728747493363044400,2.54604443359375,10.541669845581055,2.31758713722229,-0.38546648621559143
1728747493373054000,2.556053955078125,10.623072624206543,2.3511061668395996,-0.31364041566848755
1728747493383063800,2.566063720703125,10.60152530670166,2.410961151123047,-0.17238251864910126
1728747493393043000,2.57604296875,10.5344877243042,2.4396915435791016,-0.14365209639072418
1728747493403022300,2.586022216796875,10.319009780883789,2.492363929748535,-0.16759411990642548
1728747493413032000,2.596031982421875,10.141838073730469,2.4444799423217773,-0.004788403399288654
1728747493423011300,2.60601123046875,10.029311180114746,2.2218191623687744,-0.0933738648891449
1728747493433021000,2.61602099609375,9.883264541625977,1.9345149993896484,-0.29209262132644653
1728747493443030800,2.62603076171875,9.62947940826416,1.7334020137786865,-0.40462008118629456
1728747493453010200,2.63601025390625,9.3828763961792,1.647210717201233,-0.44532153010368347
1728747493463050200,2.64605029296875,9.105149269104004,1.7310078144073486,-0.4884171485900879
1728747493473060000,2.65606005859375,8.87291145324707,1.9393033981323242,-0.44532153010368347
1728747493483039200,2.666039306640625,8.956708908081055,2.2242133617401123,-0.3734954595565796
1728747493493018600,2.6760185546875,9.133879661560059,2.4827871322631836,-0.28730419278144836
1728747493503028500,2.686028564453125,9.23682975769043,2.557007312774658,-0.22026655077934265
1728747493513038000,2.6960380859375,9.373299598693848,2.494758129119873,-0.40222588181495667
1728747493523017500,2.706017578125,9.533711433410645,2.3989901542663574,-0.5650315880775452
1728747493532996600,2.71599658203125,9.627084732055664,2.3295583724975586,-0.7206547260284424
1728747493543006500,2.72600634765625,9.75397777557373,2.2649147510528564,-0.9002198576927185
1728747493553016000,2.73601611328125,9.66539192199707,2.279279947280884,-1.1276689767837524
1728747493562995500,2.745995361328125,9.543288230895996,2.4013843536376953,-1.2114660739898682
1728747493572974600,2.755974609375,9.435548782348633,2.6168625354766846,-1.2641384601593018
1728747493582954000,2.7659541015625,9.351752281188965,2.920926094055176,-1.237802267074585
1728747493592933000,2.77593310546875,9.387664794921875,3.24414324760437,-1.0414776802062988
1728747493602943000,2.78594287109375,9.454702377319336,3.421314239501953,-1.015141487121582
1728747493612922000,2.795922119140625,9.461885452270508,3.5649664402008057,-0.9864110946655273
1728747493622901500,2.805901611328125,9.512163162231445,3.5027170181274414,-0.9768342971801758
1728747493632880600,2.815880615234375,9.545681953430176,3.3039982318878174,-1.213860273361206
1728747493642829300,2.825829345703125,9.50737476348877,3.1292216777801514,-1.479616641998291
1728747493652808700,2.83580859375,9.378087997436523,3.0765492916107178,-1.556231141090393
1728747493662849000,2.84584912109375,9.265560150146484,3.1459810733795166,-1.5394717454910278
1728747493672828200,2.855828125,9.210494041442871,3.3470940589904785,-1.3886369466781616
1728747493682807300,2.865807373046875,9.153033256530762,3.5194764137268066,-1.2880805730819702
1728747493692786700,2.87578662109375,9.030928611755371,3.6296098232269287,-1.173158884048462
1728747493702796500,2.885796630859375,8.932766914367676,3.670311212539673,-1.1204863786697388
1728747493712806100,2.89580615234375,8.676587104797363,3.7445313930511475,-1.1013327836990356
1728747493722816000,2.90581591796875,8.463502883911133,3.8307228088378906,-1.05105459690094
1728747493732856300,2.915856201171875,8.24084186553955,4.017470359802246,-1.036689281463623
1728747493742835500,2.92583544921875,8.10437297821045,4.261679172515869,-0.9265560507774353
1728747493752845300,2.93584521484375,8.236053466796875,4.551377296447754,-0.8355764150619507
1728747493762855000,2.94585498046875,8.561665534973145,4.81473970413208,-0.6536170840263367
1728747493772834300,2.955834228515625,8.851364135742188,5.044582843780518,-0.38067805767059326
1728747493782844200,2.96584423828125,8.913613319396973,5.037400245666504,-0.15083470940589905
1728747493792823300,2.9758232421875,9.023746490478516,4.750096321105957,-0.17956513166427612
1728747493802802400,2.985802490234375,9.100360870361328,4.333505153656006,-0.2777273952960968
1728747493812781800,2.99578173828125,9.253589630126953,3.8953661918640137,-0.3687070608139038
1728747493822761000,3.005760986328125,9.390059471130371,3.5242648124694824,-0.40462008118629456
1728747493832740400,3.015740234375,9.222464561462402,3.2776620388031006,-0.3280056416988373
1728747493842750000,3.02575,8.973467826843262,3.141192674636841,-0.14365209639072418
1728747493852729300,3.035729248046875,8.971074104309082,2.9233202934265137,-0.009576806798577309
1728747493862739000,3.045739013671875,9.071630477905273,2.760514497756958,0.16998831927776337
1728747493872748800,3.055748779296875,9.20091724395752,2.676717519760132,0.395043283700943
1728747493882758700,3.065758544921875,9.615114212036133,2.5977089405059814,0.5051765441894531
1728747493892737800,3.07573779296875,10.029311180114746,2.5282769203186035,0.5195417404174805
1728747493902717200,3.08571728515625,10.309432983398438,2.410961151123047,0.5410895943641663
1728747493912696300,3.0956962890625,10.302249908447266,2.3056161403656006,0.6177040338516235
1728747493922675700,3.10567578125,10.101137161254883,2.094926595687866,0.6727706789970398
1728747493932654800,3.11565478515625,10.010157585144043,1.8818424940109253,0.7086837291717529
1728747493942664700,3.125664794921875,9.943120002746582,1.6927006244659424,0.6488286852836609
1728747493952674300,3.13567431640625,10.070012092590332,1.556231141090393,0.6536170840263367
1728747493962684200,3.14568408203125,10.299856185913086,1.4844050407409668,0.6751648783683777
1728747493972694000,3.155694091796875,10.417171478271484,1.5083470344543457,0.5985504388809204
1728747493982703600,3.16570361328125,10.465055465698242,1.6376339197158813,0.5674257874488831
1728747493992683000,3.17568310546875,10.599130630493164,1.9369091987609863,0.7086837291717529
1728747494002692600,3.185692626953125,10.888829231262207,2.252943754196167,0.9744400978088379
1728747494012672000,3.195672119140625,10.955866813659668,2.363077163696289,1.1085153818130493
1728747494022651100,3.205651123046875,10.967838287353516,2.27209734916687,1.137245774269104
1728747494032599800,3.215599853515625,10.96544361114502,2.0422539710998535,0.7086837291717529
1728747494042640100,3.22564013671875,11.051634788513184,1.8938134908676147,0.5530605912208557
1728747494052619500,3.23561962890625,11.001357078552246,1.8507179021835327,0.6224924325942993
1728747494062629000,3.245629150390625,10.718840599060059,1.8555063009262085,0.5386953949928284
1728747494072608500,3.2556083984375,10.563218116760254,2.051830768585205,0.42616790533065796
1728747494082587600,3.265587646484375,10.630255699157715,2.2673089504241943,0.6224924325942993
1728747494092567000,3.275567138671875,10.54406452178955,2.2649147510528564,0.5889736413955688
1728747494102546200,3.285546142578125,10.283096313476562,2.252943754196167,0.4429273009300232
1728747494112525300,3.295525390625,10.096348762512207,2.169146776199341,0.43335050344467163
1728747494122504700,3.305504638671875,10.098742485046387,1.965639591217041,0.2849099934101105
1728747494132483800,3.31548388671875,9.99339771270752,1.8698714971542358,0.026336219161748886
1728747494142463200,3.325463134765625,10.089165687561035,1.843535304069519,-0.047884032130241394
1728747494152442400,3.3354423828125,10.426748275756836,1.8124107122421265,-0.004788403399288654
1728747494162452200,3.3454521484375,10.259154319763184,1.6831238269805908,-0.09576806426048279
1728747494172462000,3.355462158203125,10.012551307678223,1.5490485429763794,-0.2322375625371933
1728747494182471700,3.3654716796875,10.105925559997559,1.403002142906189,-0.40940847992897034
1728747494192451000,3.375451171875,10.120290756225586,1.3886369466781616,-0.586579442024231
1728747494202460700,3.385460693359375,9.938331604003906,1.3766659498214722,-0.5482721924781799
1728747494212440000,3.395440185546875,10.108319282531738,1.2282254695892334,-0.5793967843055725
1728747494222449700,3.40544970703125,10.022128105163574,1.0271124839782715,-0.8906430602073669
1728747494232429000,3.415428955078125,9.909601211547852,0.8236053586006165,-1.1444283723831177
1728747494242438700,3.425438720703125,9.93593692779541,0.7206547260284424,-1.3335703611373901
1728747494252418000,3.43541796875,9.799467086791992,0.7637503147125244,-1.4700398445129395
1728747494262428000,3.445427978515625,9.543288230895996,0.8810662031173706,-1.4508862495422363
1728747494272437500,3.4554375,9.311050415039062,1.0462661981582642,-1.1994950771331787
1728747494282447400,3.465447265625,9.011775016784668,1.1252747774124146,-0.8954314589500427
1728747494292426500,3.475426513671875,8.78193187713623,1.1492167711257935,-0.7972691655158997
1728747494302406000,3.485406005859375,8.949525833129883,1.3479355573654175,-0.7326257228851318
1728747494312415500,3.49541552734375,8.820239067077637,1.53707754611969,-0.6919242739677429
1728747494322425300,3.50542529296875,8.631096839904785,1.7334020137786865,-0.4189853072166443
1728747494332404500,3.515404541015625,8.449137687683105,1.800439715385437,-0.14604631066322327
1728747494342414300,3.525414306640625,8.04691219329834,1.7310078144073486,-0.15083470940589905
1728747494352393700,3.535393798828125,7.659051418304443,1.599326729774475,-0.31603461503982544
1728747494362372900,3.545372802734375,7.429207801818848,1.577778935432434,-0.4620809257030487
1728747494372352000,3.55535205078125,6.861782073974609,1.6974890232086182,-0.40462008118629456
1728747494382361900,3.56536181640625,6.430825710296631,1.9057846069335938,-0.0694318488240242
1728747494392371700,3.575371826171875,6.234501361846924,2.0685901641845703,0.22744916379451752
1728747494402381300,3.58538134765625,6.066906929016113,2.1954829692840576,0.3423708379268646
1728747494412360700,3.595360595703125,6.160281181335449,2.3774423599243164,0.45489832758903503
1728747494422339800,3.60533984375,6.440402507781982,2.6024973392486572,0.7398083209991455
1728747494432319200,3.6153193359375,6.615179061889648,2.7940332889556885,0.8738836050033569
1728747494442298400,3.62529833984375,6.94079065322876,2.9759926795959473,0.7733271718025208
1728747494452277800,3.63527783203125,7.529764175415039,3.07415509223938,0.6488286852836609
1728747494462287400,3.645287353515625,8.054094314575195,3.1723172664642334,0.608127236366272
1728747494472297200,3.655297119140625,8.595184326171875,3.162740468978882,0.5961562395095825
1728747494482306800,3.665306884765625,9.07641887664795,3.023876667022705,0.4668693244457245
1728747494492286200,3.6752861328125,9.248801231384277,2.786850690841675,0.26815059781074524
1728747494502265300,3.685265380859375,9.35654067993164,2.6408045291900635,0.12210428714752197
1728747494512244700,3.69524462890625,9.641449928283691,2.5689783096313477,-0.11252748221158981
1728747494522254300,3.70525439453125,9.895236015319824,2.58813214302063,-0.363918662071228
1728747494532264200,3.71526416015625,10.237606048583984,2.75812029838562,-0.4165911078453064
1728747494542274000,3.725274169921875,10.572794914245605,2.875436305999756,-0.395043283700943
1728747494552253200,3.735253173828125,10.702081680297852,3.0334534645080566,-0.31364041566848755
1728747494562232600,3.745232666015625,10.57040023803711,2.9688100814819336,-0.10055647045373917
1728747494572242200,3.7552421875,10.062829971313477,2.7461493015289307,0.05267243832349777
1728747494582252000,3.765251953125,9.272743225097656,2.671929121017456,-0.1149216815829277
1728747494592262000,3.775261962890625,8.99740982055664,2.782062292098999,-0.15801730751991272
1728747494602210600,3.78521044921875,8.973467826843262,2.9688100814819336,0.1867477297782898
1728747494612189700,3.795189697265625,8.497021675109863,3.1459810733795166,0.31124621629714966
1728747494622199600,3.805199462890625,9.057265281677246,3.1699230670928955,0.033518824726343155
1728747494632209200,3.815209228515625,9.239224433898926,3.0382418632507324,0.019153613597154617
1728747494642219000,3.825218994140625,9.210494041442871,2.851494312286377,-0.047884032130241394
1728747494652198400,3.835198486328125,8.887276649475098,2.7317841053009033,-0.038307227194309235
1728747494662177500,3.845177490234375,9.026140213012695,2.6240451335906982,0.16519992053508759
1728747494672156700,3.85515673828125,9.217676162719727,2.604891538619995,0.20350714027881622
1728747494682136000,3.865135986328125,9.004592895507812,2.6144683361053467,0.2537853717803955
1728747494692115200,3.875115234375,8.743624687194824,2.363077163696289,0.13168109953403473
1728747494702125000,3.885125,8.549694061279297,2.03507137298584,-0.2992752194404602
1728747494712135000,3.895135009765625,8.422801971435547,1.800439715385437,-0.6607996821403503
1728747494722144500,3.90514453125,8.195352554321289,1.623268723487854,-0.912190854549408
1728747494732124000,3.9151240234375,8.271966934204102,1.7597382068634033,-0.9576807022094727
1728747494742103000,3.92510302734375,8.667010307312012,2.078166961669922,-0.7733271718025208
1728747494752082400,3.93508251953125,9.004592895507812,2.363077163696289,-0.6703764796257019
1728747494762061600,3.9450615234375,9.545681953430176,2.499546527862549,-0.6248866319656372
1728747494772040700,3.955040771484375,10.070012092590332,2.5306711196899414,-0.6416460275650024
1728747494782020000,3.96502001953125,10.285490036010742,2.38462495803833,-0.7829039692878723
1728747494791999200,3.974999267578125,10.141838073730469,2.0374655723571777,-1.015141487121582
1728747494802009000,3.985009033203125,9.821015357971191,1.7405846118927002,-1.1994950771331787
1728747494812019000,3.99501904296875,9.586383819580078,1.522712230682373,-1.3718775510787964
1728747494822028500,4.005028564453125,9.832986831665039,1.5394717454910278,-1.4245500564575195
1728747494832008000,4.015008056640625,10.307038307189941,1.5514427423477173,-1.5897499322891235
1728747494841987000,4.024987060546875,10.8505220413208,1.647210717201233,-1.6352397203445435
1728747494851966500,4.034966552734375,11.18092155456543,1.7094600200653076,-1.4939818382263184
1728747494861945600,4.044945556640625,11.374852180480957,1.7549498081207275,-1.3934253454208374
1728747494871924700,4.0549248046875,11.130643844604492,1.6759412288665771,-1.4676456451416016
1728747494881934600,4.0649345703125,10.718840599060059,1.5514427423477173,-1.5418659448623657
1728747494891944400,4.0749443359375,10.127472877502441,1.5514427423477173,-1.436521053314209
1728747494901954000,4.0849541015625,9.871294021606445,1.7501614093780518,-1.1061211824417114
1728747494911933400,4.094933349609375,9.744400978088379,1.9512743949890137,-0.9145850539207458
1728747494921943000,4.104943115234375,9.703699111938477,2.0614075660705566,-0.9193734526634216
1728747494931922400,4.11492236328125,9.919178009033203,2.0638017654418945,-1.0103530883789062
1728747494941901600,4.124901611328125,10.141838073730469,1.9823989868164062,-1.1444283723831177
1728747494951881000,4.134880859375,10.086771965026855,1.8698714971542358,-1.2449848651885986
1728747494961860000,4.144860107421875,9.847352027893066,1.742978811264038,-1.280897855758667
1728747494971839500,4.154839599609375,9.6989107131958,1.7573440074920654,-1.1468225717544556
1728747494981818600,4.164818603515625,9.81143856048584,1.8770540952682495,-0.8571242094039917
1728747494991798000,4.174798095703125,10.0580415725708,1.98958158493042,-0.7254431247711182
1728747495001777200,4.184777099609375,10.374075889587402,2.1284453868865967,-0.5482721924781799
1728747495011756300,4.19475634765625,10.575188636779785,2.33913516998291,-0.31124621629714966
1728747495021735700,4.204735595703125,10.611102104187012,2.4612393379211426,-0.10055647045373917
1728747495031714800,4.21471484375,10.649409294128418,2.3582887649536133,-0.06464344263076782
1728747495041694200,4.224694091796875,10.742782592773438,2.032677173614502,-0.29209262132644653
1728747495051673300,4.23467333984375,10.836156845092773,1.644816517829895,-0.5434837937355042
1728747495061652700,4.24465283203125,10.836156845092773,1.403002142906189,-0.9074024558067322
1728747495071632000,4.2546318359375,10.862493515014648,1.3934253454208374,-1.0031704902648926
1728747495081611000,4.264611083984375,10.805032730102539,1.6065093278884888,-0.8930372595787048
1728747495091590400,4.27459033203125,10.505757331848145,1.946485996246338,-0.7038952708244324
1728747495101569500,4.284569580078125,10.36449909210205,2.207453966140747,-0.42856210470199585
1728747495111549000,4.294548828125,10.218452453613281,2.27209734916687,-0.2825157940387726
1728747495121528000,4.304528076171875,9.890447616577148,2.2673089504241943,-0.3758896589279175
1728747495131507500,4.314507568359375,10.031704902648926,2.300827741622925,-0.22026655077934265
1728747495141486600,4.324486572265625,10.285490036010742,2.2218191623687744,-0.1364694982767105
1728747495151466000,4.334466064453125,10.47942066192627,1.900996208190918,-0.23942017555236816
1728747495161475600,4.3444755859375,10.615890502929688,1.4197616577148438,-0.5003881454467773
1728747495171485400,4.3544853515625,10.706870079040527,1.0079588890075684,-0.7326257228851318
1728747495181495000,4.3644951171875,10.5344877243042,0.7805097699165344,-0.9672574996948242
1728747495191505000,4.3745048828125,10.642226219177246,0.7038952708244324,-0.8667010068893433
1728747495201514800,4.3845146484375,11.085153579711914,0.8092401623725891,-0.9289502501487732
1728747495211494000,4.394493896484375,11.255142211914062,0.768538773059845,-1.0438719987869263
1728747495221503700,4.404503662109375,11.477803230285645,0.912190854549408,-1.2761094570159912
1728747495231483000,4.41448291015625,11.724405288696289,0.9576807022094727,-1.5849615335464478
1728747495241462300,4.424462158203125,11.793837547302246,1.0223240852355957,-1.8100165128707886
1728747495251441400,4.43444140625,11.959037780761719,1.1492167711257935,-1.9608511924743652
1728747495261451300,4.444451171875,11.956643104553223,1.1348515748977661,-2.008735179901123
1728747495271430400,4.454430419921875,11.875240325927734,0.9361328482627869,-2.099714994430542
1728747495281409800,4.464409912109375,11.616666793823242,0.7445967197418213,-2.31758713722229
1728747495291389000,4.474388916015625,11.264719009399414,0.6488286852836609,-2.561795711517334
1728747495301368300,4.484368408203125,11.073183059692383,0.6320692300796509,-2.80361008644104
1728747495311347500,4.494347412109375,10.876858711242676,0.7254431247711182,-2.892195701599121
1728747495321326600,4.50432666015625,10.740388870239258,0.8930372595787048,-2.8155810832977295
1728747495331306000,4.514305908203125,10.620678901672363,1.048660397529602,-2.676717519760132
1728747495341285000,4.52428515625,10.311826705932617,1.173158884048462,-2.6575639247894287
1728747495351264500,4.534264404296875,9.672574996948242,1.3024457693099976,-2.5546131134033203
1728747495361274000,4.544274169921875,9.224859237670898,1.4413094520568848,-2.4444799423217773
1728747495371284000,4.554283935546875,8.801085472106934,1.5634137392044067,-2.5019407272338867
1728747495381293800,4.5642939453125,8.62391471862793,1.6831238269805908,-2.585737943649292
1728747495391334100,4.574334228515625,8.779537200927734,1.699883222579956,-2.734178304672241
1728747495401343700,4.58434375,9.090784072875977,1.900996208190918,-2.9305028915405273
1728747495411323100,4.5943232421875,9.10993766784668,2.0590133666992188,-3.112462282180786
1728747495421332700,4.604332763671875,9.636661529541016,2.279279947280884,-3.1507694721221924
1728747495431312100,4.61431201171875,9.852140426635742,2.4372973442077637,-3.1268274784088135
1728747495441291300,4.624291259765625,9.557653427124023,2.559401512145996,-3.0190882682800293
1728747495451270700,4.634270751953125,9.346963882446289,2.669534921646118,-2.7892448902130127
1728747495461249800,4.644249755859375,9.284713745117188,2.889801502227783,-2.736572504043579
1728747495471229000,4.65422900390625,9.363722801208496,3.1747114658355713,-2.5689783096313477
1728747495481208300,4.664208251953125,9.406818389892578,3.4165258407592773,-2.2218191623687744
1728747495491187500,4.6741875,9.366117477416992,3.5865142345428467,-1.98958158493042
1728747495501197300,4.684197265625,9.394847869873047,3.6942532062530518,-1.8770540952682495
1728747495511176400,4.694176513671875,9.342175483703613,3.6511576175689697,-1.702277421951294
1728747495521186300,4.704186279296875,8.992621421813965,3.5482068061828613,-1.53707754611969
1728747495531196200,4.714196044921875,8.604761123657227,3.2968156337738037,-1.4652514457702637
1728747495541205800,4.724205810546875,8.26478385925293,3.0190882682800293,-1.479616641998291
1728747495551185200,4.73418505859375,8.051700592041016,2.8634653091430664,-1.436521053314209
1728747495561194800,4.74419482421875,8.02536392211914,2.8778305053710938,-0.9289502501487732
1728747495571174100,4.754174072265625,7.955932140350342,3.0765492916107178,-0.21308395266532898
1728747495581184000,4.76418408203125,8.10437297821045,3.1100680828094482,0.13168109953403473
1728747495591163100,4.7741630859375,8.279149055480957,2.6839001178741455,0.13407529890537262
1728747495601142300,4.784142333984375,8.377311706542969,2.2242133617401123,0.2059013396501541
1728747495611121700,4.79412158203125,8.810662269592285,1.8267759084701538,0.3208230137825012
1728747495621100800,4.804100830078125,9.162610054016113,1.235408067703247,0.26575639843940735
1728747495631080200,4.814080078125,9.402029991149902,0.6536170840263367,0.10055647045373917
1728747495641059300,4.824059326171875,9.835380554199219,0.3208230137825012,-0.035913024097681046
1728747495651038700,4.834038818359375,10.309432983398438,0.10534487664699554,-0.043095629662275314
1728747495661017900,4.844017822265625,10.690110206604004,-0.05027823522686958,0.023942016065120697
1728747495670997000,4.8539970703125,10.927136421203613,-0.15801730751991272,0.12689268589019775
1728747495680976400,4.863976318359375,11.05402946472168,-0.26815059781074524,0.2059013396501541
1728747495690955500,4.87395556640625,11.018115997314453,-0.33518823981285095,0.2561795711517334
1728747495700965400,4.88396533203125,10.87446403503418,-0.12928688526153564,0.23702596127986908
1728747495710975200,4.893975341796875,10.769119262695312,0.2753331959247589,0.5219359993934631
1728747495720984800,4.90398486328125,10.69489860534668,0.7398083209991455,0.912190854549408
1728747495730994700,4.91399462890625,10.467450141906738,1.0893617868423462,1.0630255937576294
1728747495741004500,4.924004638671875,10.247182846069336,1.2330138683319092,1.094150185585022
1728747495750983700,4.933983642578125,10.072406768798828,1.292868971824646,1.0797849893569946
1728747495760993500,4.94399365234375,10.055646896362305,1.2856862545013428,1.0654197931289673
1728747495770972700,4.95397265625,9.832986831665039,1.4389152526855469,0.9983820915222168
1728747495780952000,4.9639521484375,9.641449928283691,1.6950948238372803,0.9145850539207458
1728747495790931200,4.97393115234375,9.47146224975586,2.011129379272461,0.7709329724311829
1728747495800910300,4.983910400390625,9.926360130310059,1.9369091987609863,0.6224924325942993
1728747495810889700,4.9938896484375,10.022128105163574,1.647210717201233,0.36152446269989014
1728747495820868900,5.003868896484375,10.266336441040039,2.695871114730835,-0.016759412363171577
1728747495830848300,5.01384814453125,9.792284965515137,2.5043349266052246,-0.035913024097681046
1728747495840857900,5.02385791015625,9.66299819946289,2.9089550971984863,-0.24420857429504395
1728747495850867700,5.03386767578125,9.184157371520996,3.1028854846954346,-0.2801215946674347
1728747495860877600,5.043877685546875,8.283937454223633,3.2345664501190186,-0.22026655077934265
1728747495870856700,5.053856689453125,8.24084186553955,3.222595453262329,-0.11252748221158981
1728747495880866600,5.063866455078125,7.603984832763672,3.066972494125366,-0.014365210197865963
1728747495890845700,5.073845703125,7.594407558441162,3.0550012588500977,0.031124621629714966
1728747495900825000,5.0838251953125,7.9415669441223145,3.2776620388031006,0.05027823522686958
1728747495910804200,5.09380419921875,8.372523307800293,2.7222073078155518,-0.038307227194309235
1728747495920783600,5.10378369140625,8.683769226074219,2.126051187515259,-0.09576806426048279
1728747495930762800,5.1137626953125,9.251194953918457,1.7597382068634033,-0.05506663769483566
1728747495940742000,5.123741943359375,10.326191902160645,1.656787633895874,-0.002394201699644327
1728747495950721300,5.13372119140625,10.84094524383545,1.7190368175506592,-0.08379705995321274
1728747495960700400,5.143700439453125,10.936713218688965,1.6089035272598267,-0.14604631066322327
1728747495970679800,5.1536796875,11.152191162109375,1.1109095811843872,-0.031124621629714966
1728747495980659000,5.163658935546875,10.781089782714844,0.5363011956214905,0.3016694188117981
1728747495990638300,5.173638427734375,10.338163375854492,0.36152446269989014,0.6607996821403503
1728747496000617500,5.183617431640625,9.770736694335938,0.40462008118629456,0.9864110946655273
1728747496010596600,5.1935966796875,9.746794700622559,0.730231523513794,1.192312479019165
1728747496020576000,5.203575927734375,9.5624418258667,0.8667010068893433,1.4844050407409668
1728747496030555100,5.21355517578125,9.464279174804688,1.1899182796478271,1.6400281190872192
1728747496040534500,5.223534423828125,9.478644371032715,1.4772224426269531,1.6950948238372803
1728747496050513700,5.233513671875,9.531316757202148,1.4987702369689941,1.6280571222305298
1728747496060493000,5.2434931640625,9.536105155944824,1.2042834758758545,1.7118542194366455
1728747496070472200,5.25347216796875,9.387664794921875,1.01753568649292,1.6663644313812256
1728747496080451600,5.26345166015625,9.313444137573242,1.1563993692398071,1.4437036514282227
1728747496090430700,5.2734306640625,9.421183586120605,1.335964560508728,1.0797849893569946
1728747496100409900,5.283409912109375,9.691728591918945,1.455674648284912,0.6416460275650024
1728747496110389200,5.29338916015625,9.890447616577148,1.9800047874450684,0.08858546614646912
1728747496120368400,5.303368408203125,10.467450141906738,3.2561142444610596,0.15083470940589905
1728747496130347800,5.31334765625,11.477803230285645,4.108449935913086,0.3734954595565796
1728747496140357400,5.323357421875,12.090718269348145,4.393360137939453,0.2322375625371933
1728747496150367200,5.3333671875,12.176909446716309,4.553771495819092,-0.040701430290937424
1728747496160377000,5.343377197265625,11.772290229797363,3.8163576126098633,-0.49799394607543945
1728747496170356200,5.353356201171875,11.803414344787598,4.546588897705078,-0.3974374830722809
1728747496180366000,5.363365966796875,11.817779541015625,4.876988887786865,-0.6057330369949341
1728747496190314800,5.373314697265625,11.410765647888184,5.1810526847839355,-0.8451532125473022
1728747496200324600,5.38332470703125,10.793061256408691,5.791574001312256,-0.7541735172271729
1728747496210334200,5.393334228515625,10.833763122558594,6.519411087036133,-0.5674257874488831
1728747496220344000,5.403343994140625,10.362105369567871,6.509834289550781,-0.8643068075180054
1728747496230354000,5.41335400390625,10.02452278137207,5.9088897705078125,-0.9528923034667969
1728747496240333000,5.4233330078125,9.6989107131958,5.061342239379883,-1.0869675874710083
1728747496250343000,5.433343017578125,9.514557838439941,4.390965938568115,-1.2545616626739502
1728747496260322000,5.443322021484375,8.968679428100586,4.438849925994873,-1.213860273361206
1728747496270332000,5.453331787109375,8.595184326171875,4.941632270812988,-0.9074024558067322
1728747496280311000,5.46331103515625,7.843404769897461,5.008669853210449,-0.7086837291717529
1728747496290321000,5.47332080078125,6.782773494720459,4.7189717292785645,-0.40940847992897034
1728747496300300000,5.483300048828125,6.14831018447876,4.046200752258301,-0.18914192914962769
1728747496310310000,5.493309814453125,5.837063789367676,2.846705913543701,-0.21308395266532898
1728747496320319700,5.50331982421875,5.7987565994262695,1.556231141090393,-0.31842881441116333
1728747496330299000,5.513298828125,6.22731876373291,0.40940847992897034,-0.3687070608139038
1728747496340308700,5.523308837890625,6.342240333557129,-0.0071826050989329815,-0.31842881441116333
1728747496350288000,5.533287841796875,7.175422668457031,-0.090979665517807,0.0933738648891449
1728747496360297700,5.543297607421875,7.898471355438232,-0.11971008777618408,0.7469909191131592
1728747496370276900,5.55327685546875,7.836222171783447,0.15562310814857483,1.0199298858642578
1728747496380256300,5.56325634765625,7.644686222076416,0.8307880163192749,1.1420341730117798
1728747496390235400,5.5732353515625,8.032546997070312,1.2713210582733154,1.2497732639312744
1728747496400214500,5.583214599609375,8.315062522888184,1.6831238269805908,1.2713210582733154
1728747496410194000,5.59319384765625,9.028534889221191,1.9345149993896484,1.2018892765045166
1728747496420173000,5.603173095703125,9.734824180603027,2.056619167327881,0.8762778043746948
1728747496430152400,5.61315234375,10.496180534362793,2.580949544906616,0.7254431247711182
1728747496440131600,5.623131591796875,11.372458457946777,3.3423056602478027,1.0103530883789062
1728747496450111000,5.633111083984375,11.884817123413086,3.7397429943084717,1.7908629179000854
1728747496460120600,5.64312060546875,11.997344970703125,3.3925838470458984,1.522712230682373
1728747496470100000,5.653099853515625,11.99255657196045,2.7437551021575928,0.950498104095459
1728747496480079000,5.6630791015625,11.51850414276123,1.9153614044189453,0.5889736413955688
1728747496490058500,5.67305859375,10.979808807373047,1.1971008777618408,0.22505496442317963
1728747496500068000,5.683068115234375,10.405200958251953,0.8212111592292786,-0.08858546614646912
1728747496510047500,5.693047607421875,9.876082420349121,0.8403648138046265,-0.043095629662275314
1728747496520026600,5.703026611328125,9.536105155944824,1.2856862545013428,0.20111294090747833
1728747496530006000,5.713006103515625,9.301473617553711,1.41257905960083,0.2825157940387726
1728747496539985200,5.722985107421875,8.769960403442383,1.6519991159439087,0.2561795711517334
1728747496549964300,5.73296435546875,8.439560890197754,2.1499931812286377,0.33279404044151306
1728747496559943700,5.742943603515625,8.221688270568848,2.738966703414917,0.545877993106842
1728747496569922800,5.7529228515625,8.274360656738281,3.2393548488616943,0.8451532125473022
1728747496579902200,5.762902099609375,8.583212852478027,3.3925838470458984,1.2306196689605713
1728747496589881300,5.77288134765625,8.791508674621582,3.1699230670928955,1.0558429956436157
1728747496599860700,5.78286083984375,8.865729331970215,2.913743495941162,0.7781155705451965
1728747496609839900,5.79283984375,9.167398452758789,2.540247917175293,0.8643068075180054
1728747496619819300,5.8028193359375,9.38048267364502,2.1978771686553955,0.9313444495201111
1728747496629798400,5.81279833984375,9.44752025604248,1.9153614044189453,0.9648633003234863
1728747496639777500,5.822777587890625,9.442731857299805,1.644816517829895,1.0989385843276978
1728747496649757000,5.8327568359375,9.648633003234863,1.4700398445129395,1.2521674633026123
1728747496659736000,5.842736083984375,9.945513725280762,1.2258312702178955,1.4173674583435059
1728747496669715500,5.852715576171875,10.18493366241455,0.8810662031173706,1.2449848651885986
1728747496679694600,5.862694580078125,10.596736907958984,0.6871358752250671,0.9816226959228516
1728747496689674000,5.872674072265625,11.676521301269531,0.12210428714752197,0.8834604024887085
1728747496699683600,5.88268359375,12.380416870117188,-0.304063618183136,0.5386953949928284
1728747496709663000,5.8926630859375,13.491326332092285,-0.6584054827690125,-0.019153613597154617
1728747496719672600,5.902672607421875,13.735535621643066,-0.24899697303771973,-0.5123591423034668
1728747496729652000,5.91265185546875,12.892776489257812,1.0127472877502441,-0.42616790533065796
1728747496739661600,5.92266162109375,12.040440559387207,2.0805611610412598,0.014365210197865963
1728747496749641000,5.932640869140625,11.219228744506836,2.3558945655822754,-0.0933738648891449
1728747496759620000,5.9426201171875,10.010157585144043,1.843535304069519,-0.033518824726343155
1728747496769599500,5.952599609375,9.318233489990234,1.3287819623947144,0.031124621629714966
1728747496779578600,5.96257861328125,9.002198219299316,0.7613561153411865,0.047884032130241394
1728747496789558000,5.97255810546875,8.801085472106934,0.44532153010368347,-0.18914192914962769
1728747496799567600,5.982567626953125,8.695740699768066,0.2585737705230713,-0.4213795065879822
1728747496809547000,5.992547119140625,8.214506149291992,0.19153612852096558,-0.6153098344802856
1728747496819526100,6.002526123046875,6.801927089691162,0.5339069962501526,-0.7541735172271729
1728747496829505500,6.012505615234375,4.651933670043945,1.4700398445129395,-0.9361328482627869
1728747496839515100,6.02251513671875,5.674258232116699,2.2194249629974365,-1.3000515699386597
1728747496849525000,6.03252490234375,6.9455790519714355,2.408566951751709,-1.7166426181793213
1728747496859534600,6.04253466796875,7.565677165985107,2.5282769203186035,-1.9105730056762695
1728747496869514000,6.052513916015625,9.059659004211426,2.9305028915405273,-1.721431016921997
1728747496879523800,6.06252392578125,11.856086730957031,3.4739866256713867,-1.357512354850769
1728747496889503000,6.0725029296875,15.105018615722656,4.271255970001221,-0.751779317855835
1728747496899512800,6.082512939453125,12.892776489257812,5.432443618774414,-0.8834604024887085
1728747496909492000,6.092491943359375,9.938331604003906,5.3582234382629395,-1.6879122257232666
1728747496919471400,6.102471435546875,11.293449401855469,4.338293552398682,-1.6831238269805908
1728747496929450500,6.112450439453125,13.740324020385742,2.497152328491211,-2.3726539611816406
1728747496939429600,6.1224296875,14.142549514770508,1.4772224426269531,-2.5929205417633057
1728747496949409000,6.132408935546875,13.639766693115234,1.2761094570159912,-2.6431987285614014
1728747496959388200,6.14238818359375,13.567940711975098,2.164358377456665,-2.5474305152893066
1728747496969367600,6.152367431640625,12.84968090057373,3.134010076522827,-1.9177556037902832
1728747496979346700,6.1623466796875,12.267889976501465,4.043806552886963,-1.256955862045288
1728747496989326000,6.172326171875,10.584765434265137,4.359841346740723,-1.0342950820922852
1728747496999305200,6.18230517578125,8.966285705566406,3.869029998779297,-0.7589619159698486
1728747497009284400,6.192284423828125,9.097966194152832,3.0334534645080566,-0.871489405632019
1728747497019294200,6.202294189453125,9.840168952941895,2.4372973442077637,-1.1659762859344482
1728747497029273600,6.212273681640625,9.952696800231934,2.2888567447662354,-1.1252747774124146
1728747497039252700,6.222252685546875,9.308655738830566,2.698265314102173,-0.5937620401382446
1728747497049232000,6.23223193359375,8.631096839904785,2.8874073028564453,-0.29209262132644653
1728747497059241700,6.24224169921875,8.791508674621582,2.652775526046753,-0.42856210470199585
1728747497069221000,6.25222119140625,8.516175270080566,1.9488801956176758,-0.33758243918418884
1728747497079200300,6.2622001953125,7.709329605102539,1.7980455160140991,0.05267243832349777
1728747497089179400,6.272179443359375,7.393294811248779,1.8076223134994507,0.4429273009300232
1728747497099189200,6.282189208984375,8.008605003356934,1.6136919260025024,0.40701428055763245
1728747497109168400,6.29216845703125,8.786720275878906,1.2234370708465576,-0.12928688526153564
1728747497119178200,6.30217822265625,8.992621421813965,0.629675030708313,-0.42377370595932007
1728747497129157600,6.31215771484375,8.916007041931152,0.38307225704193115,-0.5578489899635315
1728747497139136800,6.32213671875,8.729259490966797,0.11252748221158981,-0.7038952708244324
1728747497149116000,6.332115966796875,8.60236644744873,0.07422025501728058,-0.49320554733276367
1728747497159125800,6.342125732421875,8.49941635131836,0.3495534360408783,-0.4189853072166443
1728747497169074400,6.352074462890625,7.91283655166626,0.5267243981361389,-0.45489832758903503
1728747497179084300,6.362084228515625,7.613561630249023,0.6344634294509888,-0.395043283700943
1728747497189063400,6.3720634765625,8.010998725891113,0.8403648138046265,-0.26575639843940735
1728747497199073300,6.3820732421875,8.334216117858887,0.7110779285430908,-0.3974374830722809
1728747497209052400,6.392052490234375,8.585607528686523,0.8978256583213806,-0.040701430290937424
1728747497219031800,6.40203173828125,8.916007041931152,1.8171991109848022,0.31364041566848755
1728747497229011000,6.412010986328125,9.430760383605957,1.9800047874450684,0.304063618183136
1728747497239020800,6.422020751953125,9.926360130310059,2.166752576828003,0.28730419278144836
1728747497249000000,6.432,10.366893768310547,2.1308395862579346,-0.23702596127986908
1728747497258979300,6.441979248046875,11.08754825592041,1.86508309841156,-0.48602294921875
1728747497268989200,6.4519892578125,11.240777015686035,1.8818424940109253,-0.811634361743927
1728747497278968300,6.46196826171875,10.910377502441406,1.3527239561080933,-1.5705963373184204
1728747497288978200,6.471978271484375,10.249577522277832,1.0630255937576294,-1.7621324062347412
1728747497298957300,6.481957275390625,9.780313491821289,1.5059528350830078,-1.2545616626739502
1728747497308936400,6.4919365234375,9.399636268615723,1.7717092037200928,-1.036689281463623
1728747497318946300,6.5019462890625,9.057265281677246,1.6711528301239014,-0.8834604024887085
1728747497328956200,6.5119560546875,9.454702377319336,1.9536685943603516,-0.9720458984375
1728747497338965800,6.5219658203125,9.66539192199707,1.9512743949890137,-1.1085153818130493
1728747497348945200,6.531945068359375,9.825803756713867,1.9752163887023926,-1.0630255937576294
1728747497358924300,6.54192431640625,10.491392135620117,1.7046716213226318,-1.0031704902648926
1728747497368903700,6.551903564453125,10.110713958740234,1.3694833517074585,-1.237802267074585
1728747497378913300,6.561913330078125,9.926360130310059,1.2306196689605713,-0.9528923034667969
1728747497388892700,6.571892578125,9.806650161743164,1.1037269830703735,-1.170764684677124
1728747497398902300,6.58190234375,9.725247383117676,1.400607943534851,-0.9840168952941895
1728747497408881700,6.591881591796875,9.581595420837402,1.9943699836730957,-0.5363011956214905
1728747497418860800,6.60186083984375,9.205705642700195,2.47560453414917,-0.2322375625371933
1728747497428840200,6.611840087890625,9.191340446472168,2.427720546722412,-0.5291185975074768
1728747497438819300,6.6218193359375,9.301473617553711,2.4468741416931152,-0.9744400978088379
1728747497448798700,6.631798828125,9.469067573547363,2.3798365592956543,-1.1444283723831177
1728747497458777900,6.64177783203125,10.02452278137207,2.3918075561523438,-1.1109095811843872
1728747497468757200,6.65175732421875,10.02691650390625,2.47560453414917,-1.2976573705673218
1728747497478766800,6.661766845703125,9.854534149169922,3.066972494125366,-0.9528923034667969
1728747497488746200,6.671746337890625,9.830592155456543,3.423708438873291,-0.6991068720817566
1728747497498755800,6.681755859375,9.974244117736816,3.1028854846954346,-1.1635819673538208
1728747497508735200,6.6917353515625,10.089165687561035,3.3901896476745605,-0.8379706144332886
1728747497518714400,6.70171435546875,10.0580415725708,3.6942532062530518,-0.15322890877723694
1728747497528693800,6.71169384765625,10.405200958251953,3.1723172664642334,-0.7158663272857666
1728747497538673000,6.7216728515625,10.29746150970459,3.2178070545196533,-0.9983820915222168
1728747497548652000,6.731652099609375,9.971850395202637,3.3063924312591553,-0.5027823448181152
1728747497558631400,6.74163134765625,9.691728591918945,3.0765492916107178,-0.5841852426528931
1728747497568610600,6.751610595703125,9.265560150146484,2.7054479122161865,-1.1635819673538208
1728747497578590000,6.76158984375,9.02135181427002,2.6001031398773193,-0.8930372595787048
1728747497588569000,6.771569091796875,9.50737476348877,2.0661959648132324,-1.0606313943862915
1728747497598548500,6.781548583984375,9.437943458557129,1.9728221893310547,-1.170764684677124
1728747497608527600,6.791527587890625,8.927978515625,1.889025092124939,-0.5003881454467773
1728747497618537500,6.801537353515625,8.698134422302246,1.4963760375976562,-0.2322375625371933
1728747497628516600,6.8115166015625,8.774748802185059,1.6663644313812256,-0.3687070608139038
1728747497638526500,6.8215263671875,8.712499618530273,1.7166426181793213,-0.15801730751991272
1728747497648505600,6.831505615234375,9.153033256530762,1.6519991159439087,0.1867477297782898
1728747497658515500,6.841515380859375,9.528923034667969,1.8171991109848022,0.6703764796257019
1728747497668494600,6.85149462890625,9.885659217834473,1.2976573705673218,0.2801215946674347
1728747497678504400,6.86150439453125,10.180145263671875,1.0079588890075684,-0.2106897532939911
1728747497688483600,6.871483642578125,9.658209800720215,1.2665326595306396,0.004788403399288654
1728747497698493400,6.881493408203125,9.550470352172852,1.745373010635376,0.6871358752250671
1728747497708472600,6.89147265625,9.995792388916016,1.5418659448623657,0.3064578175544739
1728747497718482400,6.901482421875,9.945513725280762,1.5466543436050415,0.06703764945268631
1728747497728461800,6.9114619140625,9.586383819580078,1.259350061416626,0.2346317619085312
1728747497738471400,6.921471435546875,9.974244117736816,0.9097966551780701,-0.002394201699644327
1728747497748450800,6.931450927734375,10.086771965026855,1.015141487121582,0.24660277366638184
1728747497758460400,6.94146044921875,10.089165687561035,1.0893617868423462,0.6153098344802856
1728747497768439800,6.951439697265625,10.189722061157227,1.0295066833496094,0.6177040338516235
1728747497778449400,6.961449462890625,9.962273597717285,1.3072341680526733,1.1420341730117798
1728747497788428800,6.9714287109375,9.548076629638672,1.7381904125213623,1.678335428237915
1728747497798408000,6.981407958984375,9.44991397857666,1.766920804977417,1.6352397203445435
1728747497808387300,6.99138720703125,9.255983352661133,2.008735179901123,1.6304513216018677
1728747497818397000,7.00139697265625,9.241618156433105,2.296039342880249,1.8602946996688843
1728747497828406800,7.01140673828125,9.497797966003418,2.1164743900299072,1.4748282432556152
1728747497838386000,7.021385986328125,9.883264541625977,1.8531121015548706,1.036689281463623
1728747497848365300,7.031365234375,10.070012092590332,1.9153614044189453,0.7374141216278076
1728747497858375200,7.041375244140625,10.323798179626465,1.9057846069335938,0.48602294921875
1728747497868354300,7.051354248046875,10.409989356994629,2.1140801906585693,0.42616790533065796
1728747497878364200,7.0613642578125,10.441113471984863,2.389413356781006,0.4165911078453064
1728747497888373800,7.071373779296875,10.187328338623047,2.691082715988159,0.24899697303771973
1728747497898383600,7.081383544921875,9.615114212036133,3.2297780513763428,0.26096799969673157
1728747497908362800,7.09136279296875,8.540117263793945,3.579331636428833,0.24899697303771973
1728747497918372600,7.10137255859375,8.506598472595215,3.6774938106536865,-0.2561795711517334
1728747497928351700,7.111351806640625,8.070854187011719,4.680664539337158,1.2234370708465576
1728747497938361600,7.121361572265625,8.705317497253418,3.7205893993377686,0.5554547905921936
1728747497948371500,7.131371337890625,10.431536674499512,3.397372245788574,0.0933738648891449
1728747497958381000,7.141381103515625,11.331756591796875,3.445256233215332,0.13407529890537262
1728747497968360400,7.1513603515625,11.113883972167969,4.201824188232422,0.8164227604866028
1728747497978370000,7.1613701171875,10.398017883300781,4.790797710418701,1.2545616626739502
1728747497988349400,7.171349365234375,9.038111686706543,5.78678560256958,2.1475989818573
1728747497998328600,7.18132861328125,8.619126319885254,5.686229228973389,2.319981336593628
1728747498008308000,7.191307861328125,8.868123054504395,4.651933670043945,1.0319008827209473
1728747498018317600,7.201317626953125,7.644686222076416,3.3231520652770996,0.047884032130241394
1728747498028297000,7.211296875,7.273584842681885,1.7812861204147339,-1.0582371950149536
1728747498038276000,7.221276123046875,8.037335395812988,0.4572925269603729,-1.8076223134994507
1728747498048255500,7.23125537109375,8.425195693969727,-0.6105214357376099,-1.194706678390503
1728747498058234600,7.241234619140625,8.908824920654297,-1.2617442607879639,-0.5434837937355042
1728747498068214000,7.251214111328125,10.014945983886719,-1.256955862045288,0.38067805767059326
1728747498078193200,7.261193115234375,11.022904396057129,-0.395043283700943,1.558625340461731
1728747498088172300,7.27117236328125,10.83855152130127,0.3495534360408783,2.255337953567505
1728747498098151700,7.281151611328125,10.608707427978516,0.8786720037460327,2.5306711196899414
1728747498108130800,7.291130859375,10.170568466186523,1.5083470344543457,2.6455929279327393
1728747498118110200,7.301110107421875,9.804255485534668,2.099714994430542,2.3989901542663574
1728747498128089300,7.31108935546875,9.569623947143555,2.5689783096313477,1.4939818382263184
1728747498138068700,7.32106884765625,9.346963882446289,2.9448680877685547,0.8379706144332886
1728747498148048000,7.3310478515625,9.095572471618652,3.375824451446533,0.5554547905921936
1728747498158027300,7.34102734375,9.445125579833984,4.273650169372559,0.2561795711517334
1728747498168006400,7.35100634765625,9.131484985351562,3.8067808151245117,0.06464344263076782
1728747498177985500,7.360985595703125,9.095572471618652,4.2090067863464355,0.09576806426048279
1728747498187965000,7.37096484375,9.428366661071777,5.015852451324463,0.4405331015586853
1728747498197944000,7.380944091796875,9.646238327026367,4.714183330535889,0.6536170840263367
1728747498207923500,7.39092333984375,9.282320022583008,5.497087001800537,1.9105730056762695
1728747498217902600,7.400902587890625,9.064447402954102,5.722142219543457,3.1723172664642334
1728747498227882000,7.410882080078125,9.744400978088379,4.541800498962402,2.5498247146606445
1728747498237861000,7.420861083984375,10.211270332336426,3.514688014984131,1.802833914756775
1728747498247840300,7.43084033203125,10.120290756225586,2.8347349166870117,1.5825673341751099
1728747498257819600,7.440819580078125,9.715670585632324,2.4875755310058594,1.745373010635376
1728747498267798800,7.450798828125,9.133879661560059,2.5522189140319824,2.1356279850006104
1728747498277808600,7.46080859375,8.549694061279297,3.3734302520751953,3.287238836288452
1728747498287787800,7.470787841796875,8.29830265045166,4.022258758544922,4.065354347229004
1728747498297797600,7.480797607421875,8.975862503051758,3.907337188720703,4.278438568115234
1728747498307777000,7.490777099609375,9.679757118225098,3.1028854846954346,2.7317841053009033
1728747498317786600,7.50078662109375,10.402806282043457,2.557007312774658,1.3407529592514038
1728747498327766000,7.51076611328125,10.103530883789062,2.2433669567108154,0.6440402865409851
1728747498337745200,7.5207451171875,9.469067573547363,2.0829553604125977,0.26575639843940735
1728747498347724300,7.530724365234375,9.272743225097656,2.5234885215759277,0.7541735172271729
1728747498357734100,7.540734130859375,9.02135181427002,3.3063924312591553,1.558625340461731
1728747498367744000,7.550743896484375,8.38688850402832,3.648763418197632,1.941697597503662
1728747498377753600,7.560753662109375,9.710882186889648,2.7940332889556885,1.036689281463623
1728747498387733000,7.57073291015625,9.68933391571045,2.691082715988159,0.6727706789970398
1728747498397742800,7.580742919921875,9.543288230895996,2.8227639198303223,0.3016694188117981
1728747498407722000,7.590721923828125,9.531316757202148,2.7054479122161865,-0.08379705995321274
1728747498417731800,7.60073193359375,9.38048267364502,2.626439332962036,-0.181959331035614
1728747498427711000,7.6107109375,8.71728801727295,2.913743495941162,0.16759411990642548
1728747498437690000,7.620690185546875,8.35097599029541,3.5865142345428467,0.8595184087753296
1728747498447669500,7.63066943359375,8.341399192810059,4.048594951629639,1.3431471586227417
1728747498457648600,7.640648681640625,8.724471092224121,4.345476150512695,1.8052281141281128
1728747498467628000,7.6506279296875,8.810662269592285,4.623203277587891,1.9345149993896484
1728747498477637600,7.6606376953125,9.08838939666748,4.54419469833374,1.7908629179000854
1728747498487617000,7.670616943359375,9.174580574035645,4.201824188232422,1.414973258972168
1728747498497596200,7.68059619140625,8.432378768920898,4.034229755401611,1.2018892765045166
1728747498507575600,7.690575439453125,8.647856712341309,4.003105163574219,1.1779472827911377
1728747498517585200,7.700585205078125,8.722076416015625,3.73016619682312,1.0342950820922852
1728747498527595000,7.710594970703125,7.800309181213379,3.6966474056243896,1.5155296325683594
1728747498537604900,7.72060498046875,6.845022678375244,3.804386615753174,1.4508862495422363
1728747498547584000,7.730583984375,6.301538944244385,3.8570590019226074,1.534683346748352
1728747498557593900,7.74059375,6.129156112670898,3.8786067962646484,1.5729905366897583
1728747498567573000,7.750572998046875,5.925649166107178,4.1156325340271,2.0470423698425293
1728747498577552400,7.760552490234375,7.026981830596924,4.3622355461120605,2.3558945655822754
1728747498587531500,7.770531494140625,8.480262756347656,3.780444383621216,1.5753847360610962
1728747498597511000,7.780510986328125,9.488221168518066,3.3877954483032227,0.9433154463768005
1728747498607490000,7.790489990234375,10.357316970825195,3.4332852363586426,0.8355764150619507
1728747498617469200,7.80046923828125,10.474632263183594,3.6750996112823486,0.8834604024887085
1728747498627479000,7.81047900390625,10.611102104187012,4.0533833503723145,2.123656988143921
1728747498637458200,7.820458251953125,10.565611839294434,5.207388877868652,4.618414878845215
1728747498647437600,7.8304375,10.685321807861328,5.774814605712891,4.132391929626465
1728747498657447400,7.840447509765625,10.984597206115723,4.546588897705078,0.8259995579719543
1728747498667457000,7.85045703125,10.15141487121582,3.361459255218506,-0.20350714027881622
1728747498677467000,7.860466796875,9.454702377319336,2.8993782997131348,-0.3998316824436188
1728747498687476700,7.870476806640625,9.828198432922363,2.6623523235321045,-0.3711012601852417
1728747498697486300,7.880486328125,10.797849655151367,2.6815059185028076,0.5099649429321289
1728747498707496200,7.89049609375,10.922348022460938,2.959233283996582,0.8092401623725891
1728747498717475300,7.900475341796875,11.599906921386719,3.1699230670928955,1.1803414821624756
1728747498727485200,7.910485107421875,11.252747535705566,3.375824451446533,1.4532804489135742
1728747498737464300,7.92046435546875,9.99339771270752,3.555389642715454,1.4269442558288574
1728747498747443700,7.930443603515625,9.90241813659668,3.179499864578247,0.6033388376235962
1728747498757453300,7.940453369140625,9.780313491821289,2.7246015071868896,-0.1843535304069519
1728747498767432700,7.9504326171875,10.06043529510498,2.2002713680267334,-0.6344634294509888
1728747498777442300,7.9604423828125,10.093954086303711,1.8507179021835327,-0.9169792532920837
1728747498787452200,7.9704521484375,10.132261276245117,1.7908629179000854,-0.8738836050033569
1728747498797431600,7.980431640625,10.041281700134277,1.580173134803772,-0.6153098344802856
1728747498807441200,7.990441162109375,10.304644584655762,1.359906554222107,-0.5530605912208557
1728747498817420500,8.000420654296875,10.656591415405273,1.501164436340332,-0.26815059781074524
1728747498827430100,8.01043017578125,10.788272857666016,1.5682021379470825,0.35434186458587646
1728747498837409500,8.020409423828125,10.797849655151367,1.3072341680526733,0.4836287498474121
1728747498847388700,8.030388671875,11.094730377197266,0.8882488012313843,0.2849099934101105
1728747498857398500,8.0403984375,11.923124313354492,0.30885201692581177,0.363918662071228
1728747498867408100,8.050408203125,12.569559097290039,-0.45489832758903503,0.31842881441116333
1728747498877418000,8.06041796875,12.557587623596191,-1.048660397529602,0.08619125932455063
1728747498887366700,8.07036669921875,12.069170951843262,-1.1994950771331787,-0.06224924325942993
1728747498897376500,8.08037646484375,11.60948371887207,-1.2425906658172607,-0.004788403399288654
1728747498907355600,8.090355712890625,10.824186325073242,-0.9576807022094727,0.15322890877723694
1728747498917365500,8.100365478515625,10.287884712219238,-0.33758243918418884,0.5003881454467773
1728747498927345000,8.110344970703125,10.754754066467285,-0.016759412363171577,0.6033388376235962
1728747498937354500,8.1203544921875,11.23598861694336,0.10295066982507706,0.7852981686592102
1728747498947334000,8.130333984375,11.640608787536621,0.18914192914962769,0.8786720037460327
1728747498957343500,8.140343505859375,11.925518989562988,0.21787235140800476,0.9145850539207458
1728747498967323000,8.150322998046875,12.023680686950684,0.06464344263076782,0.6153098344802856
1728747498977332500,8.16033251953125,11.920730590820312,0.3998316824436188,0.6440402865409851
1728747498987342300,8.17034228515625,11.75792407989502,1.2042834758758545,1.1659762859344482
1728747498997352200,8.180352294921875,11.367670059204102,1.9512743949890137,1.86508309841156
1728747499007361800,8.19036181640625,10.505757331848145,2.5043349266052246,2.497152328491211
1728747499017371600,8.20037158203125,9.684545516967773,2.8443117141723633,3.0382418632507324
1728747499027350800,8.210350830078125,9.366117477416992,2.8443117141723633,3.555389642715454
1728747499037360600,8.220360595703125,9.552865028381348,2.5067291259765625,3.818751811981201
1728747499047370500,8.23037060546875,9.86650562286377,2.169146776199341,4.039018154144287
1728747499057380000,8.240380126953125,9.832986831665039,1.7693150043487549,4.2090067863464355
1728747499067390000,8.250389892578125,9.720458984375,1.357512354850769,4.129997730255127
1728747499077399800,8.26039990234375,9.20091724395752,1.3694833517074585,4.326322555541992
1728747499087379000,8.27037890625,8.549694061279297,1.4915876388549805,4.618414878845215
1728747499097358000,8.280358154296875,8.473079681396484,1.6424223184585571,4.862623691558838
1728747499107337500,8.29033740234375,8.169015884399414,1.9847931861877441,5.224148273468018
1728747499117316600,8.300316650390625,7.589619159698486,2.233790159225464,5.9519853591918945
1728747499127296000,8.3102958984375,7.812280178070068,1.7956513166427612,6.14831018447876
1728747499137275100,8.320275146484375,7.647080421447754,1.3623007535934448,5.990292549133301
1728747499147254500,8.330254638671875,6.914454460144043,1.0678139925003052,5.992686748504639
1728747499157233700,8.340233642578125,6.600813865661621,0.608127236366272,5.731719017028809
1728747499167213000,8.350213134765625,6.698976516723633,0.608127236366272,5.506663799285889
1728747499177222700,8.36022265625,6.519411087036133,0.8403648138046265,5.439626216888428
1728747499187202000,8.3702021484375,5.839457988739014,1.4460978507995605,5.468356609344482
1728747499197211600,8.380211669921875,5.365406036376953,2.5450363159179688,5.899312973022461
1728747499207221500,8.390221435546875,5.5329999923706055,3.6343982219696045,6.13633918762207
1728747499217231400,8.4002314453125,6.636727333068848,4.309563159942627,6.145915985107422
1728747499227241000,8.410240966796875,7.726089000701904,4.666299343109131,6.354211330413818
1728747499237250800,8.420250732421875,7.304709434509277,4.752490520477295,6.0405707359313965
1728747499247260700,8.4302607421875,6.464344501495361,4.855441093444824,5.748478412628174
1728747499257270300,8.440270263671875,5.614402770996094,4.879383087158203,5.245696067810059
1728747499267249700,8.450249755859375,5.250484466552734,4.90571928024292,4.967968463897705
1728747499277259300,8.46025927734375,7.113173484802246,4.697423934936523,5.154716491699219
1728747499287238700,8.47023876953125,9.457097053527832,4.443638324737549,5.829881191253662
1728747499297248300,8.480248291015625,11.568782806396484,3.8115692138671875,5.286397457122803
1728747499307227600,8.4902275390625,12.057199478149414,3.268085241317749,4.941632270812988
1728747499317237200,8.5002373046875,11.408370971679688,2.559401512145996,4.410119533538818
1728747499327216600,8.510216552734375,10.280701637268066,1.9967641830444336,4.0749311447143555
1728747499337226200,8.520226318359375,8.29830265045166,1.7836803197860718,4.082113742828369
1728747499347236000,8.530236083984375,5.96874475479126,2.1763293743133545,4.513070106506348
1728747499357215500,8.540215576171875,4.120420932769775,2.5091233253479004,5.212177276611328
1728747499367194600,8.550194580078125,3.117250680923462,2.4684219360351562,6.023811340332031
1728747499377173800,8.560173828125,2.4229321479797363,2.604891538619995,6.564900875091553
1728747499387153200,8.570153076171875,2.6408045291900635,2.8802247047424316,7.429207801818848
1728747499397163000,8.5801630859375,3.952826976776123,2.499546527862549,7.4100542068481445
1728747499407142100,8.59014208984375,4.522646903991699,1.6831238269805908,6.658275127410889
1728747499417152000,8.600152099609375,5.372588634490967,0.7924807667732239,6.162675380706787
1728747499427131100,8.610131103515625,6.174646377563477,-0.002394201699644327,6.064512729644775
1728747499437141000,8.62014111328125,7.556100368499756,-0.727837324142456,4.977545261383057
1728747499447120100,8.6301201171875,7.872135162353516,-1.522712230682373,4.821922302246094
1728747499457130000,8.6401298828125,8.130708694458008,-2.070984363555908,5.135562419891357
1728747499467109000,8.650109130859375,9.066842079162598,-2.3247697353363037,5.4875102043151855
1728747499477088500,8.660088623046875,10.232817649841309,-2.4684219360351562,5.861005783081055
1728747499487067600,8.670067626953125,11.453861236572266,-2.612074136734009,6.588842868804932
1728747499497077500,8.680077392578125,12.42351245880127,-2.7892448902130127,6.868964672088623
1728747499507056600,8.690056640625,13.117831230163574,-3.004723072052002,7.441178798675537
1728747499517066500,8.70006640625,12.880805015563965,-3.203441858291626,7.766790390014648
1728747499527076000,8.710076171875,12.083536148071289,-3.3446998596191406,7.864952564239502
1728747499537055500,8.720055419921875,11.36048698425293,-3.581725835800171,7.927201747894287
1728747499547034600,8.73003466796875,10.831368446350098,-3.8163576126098633,7.268796443939209
1728747499557044500,8.74004443359375,10.737994194030762,-4.043806552886963,6.959944248199463
1728747499567054300,8.750054443359375,10.405200958251953,-4.235342979431152,6.998251438140869
1728747499577064000,8.76006396484375,9.708487510681152,-4.266467571258545,7.117961883544922
1728747499587043300,8.770043212890625,9.064447402954102,-4.1156325340271,7.359776020050049
1728747499597053000,8.780052978515625,8.1139497756958,-3.9217023849487305,7.589619159698486
1728747499607032300,8.7900322265625,6.730101108551025,-3.6391866207122803,7.7213006019592285
1728747499617011500,8.800011474609375,5.461174011230469,-3.5266590118408203,7.891288757324219
1728747499626990800,8.809990966796875,4.072536945343018,-3.4835634231567383,8.078036308288574
1728747499637000400,8.82000048828125,2.427720546722412,-3.2992098331451416,8.307879447937012
1728747499646979800,8.829979736328125,1.7262194156646729,-3.1100680828094482,8.705317497253418
1728747499656959000,8.839958984375,1.601720929145813,-3.1268274784088135,8.822632789611816
1728747499666968800,8.84996875,1.4484920501708984,-3.1531636714935303,8.571242332458496
1728747499676948000,8.859947998046875,1.7357962131500244,-3.2776620388031006,8.571242332458496
1728747499686927400,8.86992724609375,1.9632453918457031,-3.3877954483032227,8.501810073852539
1728747499696937000,8.87993701171875,1.824381709098816,-3.4787750244140625,8.085219383239746
1728747499706946800,8.88994677734375,1.6711528301239014,-3.5745432376861572,7.989450931549072
1728747499716956700,8.899956787109375,0.8667010068893433,-3.4404678344726562,8.106766700744629
1728747499726935800,8.909935791015625,-0.1628057211637497,-3.1651346683502197,8.245630264282227
1728747499736945700,8.919945556640625,-1.0965443849563599,-2.8802247047424316,8.305485725402832
1728747499746924800,8.9299248046875,-2.0039467811584473,-2.473210334777832,8.391676902770996
1728747499756934700,8.9399345703125,-1.9608511924743652,-1.98958158493042,8.652645111083984
1728747499766913800,8.949913818359375,-1.5753847360610962,-1.6519991159439087,8.485051155090332
1728747499776893200,8.95989306640625,-1.6855180263519287,-1.4173674583435059,7.773972988128662
1728747499786872300,8.969872314453125,-1.5538369417190552,-1.2689268589019775,7.275979042053223
1728747499796851700,8.979851806640625,-1.8818424940109253,-1.115697979927063,6.641515731811523
1728747499806830800,8.989830810546875,-2.7293899059295654,-0.6919242739677429,6.102819919586182
1728747499816810000,8.99981005859375,-2.9041666984558105,-0.24660277366638184,6.200982570648193
1728747499826819800,9.00981982421875,-2.6384103298187256,0.023942016065120697,6.742072105407715
1728747499836799200,9.01979931640625,-2.5019407272338867,0.17477671802043915,7.046135425567627
1728747499846778400,9.0297783203125,-2.9281086921691895,0.33518823981285095,7.6111674308776855
1728747499856788200,9.039788330078125,-3.7708675861358643,0.42616790533065796,7.91283655166626
1728747499866767400,9.049767333984375,-4.63517427444458,0.2777273952960968,8.027758598327637
1728747499876777200,9.059777099609375,-4.443638324737549,-0.033518824726343155,8.276755332946777
1728747499886756400,9.06975634765625,-3.3231520652770996,-0.45489832758903503,8.259995460510254
1728747499896735700,9.07973583984375,-2.779668092727661,-0.5961562395095825,8.20492935180664
1728747499906715000,9.08971484375,-2.3511061668395996,-0.5530605912208557,8.607154846191406
1728747499916694000,9.099694091796875,-1.8555063009262085,-0.5578489899635315,8.884882926940918
1728747499926673400,9.10967333984375,-1.6735470294952393,-0.4812345504760742,8.825027465820312
1728747499936652500,9.119652587890625,-1.699883222579956,-0.2968810200691223,9.045293807983398
1728747499946632000,9.1296318359375,-2.4420857429504395,-0.043095629662275314,9.406818389892578
1728747499956641500,9.1396416015625,-2.964021682739258,0.24660277366638184,9.931148529052734
1728747499966621000,9.149620849609375,-3.0095114707946777,0.3064578175544739,10.144232749938965
1728747499976630800,9.159630859375,-3.3063924312591553,0.22026655077934265,10.046070098876953
1728747499986610000,9.16960986328125,-3.315969467163086,0.0454898327589035,10.074800491333008
1728747499996589000,9.179589111328125,-3.0813376903533936,-0.20111294090747833,10.144232749938965
1728747500006568400,9.189568359375,-2.9951462745666504,-0.5099649429321289,9.837775230407715
1728747500016578000,9.199578125,-2.647987127304077,-0.8858546018600464,9.196128845214844
1728747500026557400,9.209557373046875,-2.9520506858825684,-1.170764684677124,8.44195556640625
1728747500036567300,9.2195673828125,-3.8067808151245117,-1.2832920551300049,8.032546997070312
1728747500046577000,9.229576904296875,-4.1611223220825195,-1.1085153818130493,7.927201747894287
1728747500056586800,9.239586669921875,-4.446032524108887,-1.1420341730117798,7.663839817047119
1728747500066566000,9.24956591796875,-5.015852451324463,-1.2258312702178955,7.304709434509277
1728747500076575700,9.25957568359375,-5.4444146156311035,-1.2497732639312744,7.182605266571045
1728747500086585600,9.269585693359375,-5.813121795654297,-1.0821791887283325,7.12035608291626
1728747500096595200,9.27959521484375,-6.428431510925293,-0.6607996821403503,7.594407558441162
1728747500106605000,9.28960498046875,-6.461950302124023,-0.22026655077934265,8.33182144165039
1728747500116615000,9.299614990234375,-7.225700855255127,-0.07900865375995636,8.087613105773926
1728747500126594000,9.309593994140625,-6.967126846313477,0.2992752194404602,8.394071578979492
1728747500136573200,9.3195732421875,-4.975151062011719,0.629675030708313,9.21288776397705
1728747500146552600,9.329552490234375,-2.293645143508911,0.6799532771110535,9.490615844726562
1728747500156531700,9.33953173828125,1.05105459690094,0.9097966551780701,9.818621635437012
1728747500166511000,9.349510986328125,5.657498836517334,1.7812861204147339,10.769119262695312
1728747500176490200,9.359490234375,6.916848659515381,2.188300371170044,10.967838287353516
1728747500186469600,9.3694697265625,5.626373767852783,0.7805097699165344,10.412383079528809
1728747500196479200,9.379479248046875,4.120420932769775,-0.1628057211637497,9.988609313964844
1728747500206489000,9.389489013671875,2.1978771686553955,-0.8906430602073669,9.366117477416992
1728747500216499000,9.3994990234375,0.5770025849342346,-1.3072341680526733,9.093177795410156
1728747500226478000,9.40947802734375,-0.8523358106613159,-1.5466543436050415,8.899248123168945
1728747500236488000,9.419488037109375,-2.82515811920166,-1.678335428237915,8.848969459533691
1728747500246467000,9.429467041015625,-4.185064792633057,-1.7693150043487549,8.844181060791016
1728747500256446500,9.439446533203125,-4.639962673187256,-1.8626888990402222,8.786720275878906
1728747500266425600,9.449425537109375,-4.742913722991943,-1.8195933103561401,8.537723541259766
1728747500276435500,9.459435546875,-4.163516521453857,-1.2090718746185303,8.592789649963379
1728747500286414600,9.46941455078125,-3.184288263320923,-0.4572925269603729,8.65982723236084
1728747500296393700,9.479393798828125,-2.9448680877685547,0.20350714027881622,8.710105895996094
1728747500306373000,9.489373046875,-2.9688100814819336,0.8858546018600464,9.016563415527344
1728747500316383000,9.499383056640625,-3.2082302570343018,2.1380221843719482,10.54645824432373
1728747500326392600,9.509392578125,-3.648763418197632,5.22175407409668,13.503297805786133
1728747500336402400,9.51940234375,-3.823540210723877,3.6104562282562256,10.805032730102539
1728747500346381600,9.529381591796875,-4.55616569519043,2.8634653091430664,10.316615104675293
1728747500356361000,9.53936083984375,-4.613626480102539,2.9544448852539062,10.524910926818848
1728747500366340000,9.549340087890625,-3.1100680828094482,3.3255462646484375,11.049241065979004
1728747500376350000,9.559349853515625,-2.097320795059204,3.4404678344726562,10.90558910369873
1728747500386329000,9.5693291015625,-1.9776105880737305,3.205836057662964,10.505757331848145
1728747500396339000,9.5793388671875,-2.0207061767578125,2.6647465229034424,10.055646896362305
1728747500406318000,9.589318115234375,-2.47560453414917,2.2361843585968018,9.667786598205566
1728747500416297500,9.59929736328125,-2.449268341064453,1.702277421951294,9.042900085449219
1728747500426307000,9.60930712890625,-2.4205379486083984,1.290474772453308,8.786720275878906
1728747500436317000,9.61931689453125,-2.1811177730560303,1.4221558570861816,8.736441612243652
1728747500446296000,9.629296142578125,-2.1954829692840576,1.625662922859192,8.508993148803711
1728747500456275500,9.639275390625,-2.516305923461914,1.8818424940109253,8.396465301513672
1728747500466254600,9.649254638671875,-3.337517261505127,2.070984363555908,8.382100105285645
1728747500476234000,9.65923388671875,-5.2049946784973145,2.2170307636260986,8.549694061279297
1728747500486213000,9.669213134765625,-6.366182327270508,1.86508309841156,8.42040729522705
1728747500496223000,9.679222900390625,-7.074865818023682,1.7621324062347412,8.489839553833008
1728747500506202000,9.6892021484375,-6.691793918609619,1.0079588890075684,7.793126583099365
1728747500516181500,9.699181396484375,-5.995080947875977,1.194706678390503,8.039729118347168
1728747500526160600,9.70916064453125,-5.307945251464844,1.9321208000183105,8.166622161865234
1728747500536170500,9.71917041015625,-4.702212333679199,2.537853717803955,8.216899871826172
1728747500546180000,9.72918017578125,-4.144362926483154,2.734178304672241,8.343792915344238
1728747500556159500,9.739159423828125,-3.251325845718384,2.631227731704712,8.29590892791748
1728747500566169300,9.74916943359375,-2.557007312774658,2.363077163696289,8.303091049194336
1728747500576148500,9.7591484375,-2.5091233253479004,2.030282974243164,8.271966934204102
1728747500586158300,9.769158447265625,-3.0550012588500977,1.3215993642807007,7.826645374298096
1728747500596137500,9.779137451171875,-3.093308687210083,0.4572925269603729,7.556100368499756
1728747500606147300,9.789147216796875,-3.002328872680664,0.035913024097681046,7.716512203216553
1728747500616157000,9.799156982421875,-3.0526070594787598,-0.011971008032560349,7.920019149780273
1728747500626136300,9.80913623046875,-3.023876667022705,0.17717093229293823,8.1139497756958
1728747500636146000,9.81914599609375,-3.2776620388031006,0.5650315880775452,8.382100105285645
1728747500646125300,9.829125244140625,-3.5960910320281982,0.7206547260284424,8.322244644165039
1728747500656104400,9.8391044921875,-4.228160381317139,0.6871358752250671,8.085219383239746
1728747500666083800,9.849083740234375,-4.6950297355651855,0.3423708379268646,7.718906402587891
1728747500676063000,9.85906298828125,-4.912901878356934,0.304063618183136,7.735665798187256
1728747500686042400,9.86904248046875,-4.28322696685791,0.7829039692878723,8.200140953063965
1728747500696021500,9.879021484375,-3.155557870864868,1.0223240852355957,7.989450931549072
1728747500706031400,9.88903125,-2.2002713680267334,1.3120225667953491,7.5632829666137695
1728747500716010500,9.899010498046875,-0.849941611289978,1.6735470294952393,6.677428722381592
1728747500725990000,9.908989990234375,0.6009446382522583,2.097320795059204,5.178658485412598
1728747500735999500,9.91899951171875,1.0654197931289673,3.026270866394043,4.039018154144287
1728747500746009300,9.92900927734375,-0.6775590777397156,4.005499362945557,3.7469255924224854
1728747500756019200,9.939019287109375,-2.8203697204589844,3.713406801223755,3.318363666534424
1728747500765998300,9.948998291015625,-5.418078422546387,3.35667085647583,2.9879636764526367
1728747500775977500,9.9589775390625,-8.7484130859375,3.203441858291626,3.0573954582214355
1728747500785956900,9.968956787109375,-10.723628997802734,2.999934673309326,2.695871114730835
1728747500795936000,9.97893603515625,-12.011710166931152,2.894589900970459,2.542642116546631
1728747500805915400,9.988915283203125,-12.703634262084961,3.0334534645080566,2.8874073028564453
1728747500815894500,9.99889453125,-12.303802490234375,3.0142998695373535,3.1076738834381104
1728747500825874000,10.0088740234375,-10.84094524383545,3.222595453262329,3.155557870864868
1728747500835853000,10.01885302734375,-8.707711219787598,3.3255462646484375,3.318363666534424
1728747500845832400,10.02883251953125,-5.925649166107178,2.9975404739379883,2.920926094055176
1728747500855842000,10.038842041015625,-4.766855716705322,2.7054479122161865,2.190694570541382
1728747500865852000,10.048851806640625,-4.299986362457275,2.734178304672241,2.011129379272461
1728747500875831000,10.0588310546875,-5.801150798797607,2.494758129119873,1.6280571222305298
1728747500885810400,10.068810546875,-7.307103633880615,2.22660756111145,1.2114660739898682
1728747500895789600,10.07878955078125,-8.89685344696045,2.5737667083740234,0.9457096457481384
1728747500905799400,10.08879931640625,-8.595184326171875,1.6136919260025024,-0.2968810200691223
1728747500915809000,10.09880908203125,-9.002198219299316,1.9704279899597168,1.6160861253738403
1728747500925788400,10.108788330078125,-10.050858497619629,1.1540051698684692,1.3623007535934448
1728747500935767600,10.118767578125,-10.453084945678711,0.706289529800415,1.0079588890075684
1728747500945777400,10.12877734375,-11.477803230285645,-0.011971008032560349,0.9864110946655273
1728747500955787300,10.138787353515625,-10.76193618774414,-0.26096799969673157,0.849941611289978
1728747500965736000,10.14873583984375,-10.881647109985352,-0.0694318488240242,1.1061211824417114
1728747500975745500,10.15874560546875,-14.118607521057129,0.07900865375995636,1.2880805730819702
1728747500985755400,10.16875537109375,-20.032285690307617,0.9313444495201111,1.4221558570861816
1728747500995765200,10.17876513671875,-19.074604034423828,2.2433669567108154,1.482010841369629
1728747501005774800,10.18877490234375,-14.966155052185059,3.4620156288146973,1.0606313943862915
1728747501015754200,10.198754150390625,-10.917559623718262,3.936067581176758,0.3711012601852417
1728747501025733400,10.2087333984375,-8.60236644744873,4.094084739685059,-0.5099649429321289
1728747501035712800,10.218712646484375,-6.584054470062256,3.5649664402008057,-1.1013327836990356
1728747501045692000,10.22869189453125,-5.849034786224365,2.5929205417633057,-1.5131354331970215
1728747501055701800,10.23870166015625,-7.453149795532227,1.922544002532959,-2.873042106628418
1728747501065681000,10.248680908203125,-9.976638793945312,2.070984363555908,-4.094084739685059
1728747501075660300,10.258660400390625,-12.370840072631836,2.293645143508911,-3.780444383621216
1728747501085639400,10.268639404296875,-12.351686477661133,2.8443117141723633,-1.7549498081207275
1728747501095649300,10.278649169921875,-3.957615375518799,2.607285737991333,-2.1571757793426514
1728747501105628400,10.28862841796875,0.3663128614425659,4.982333660125732,-5.348646640777588
1728747501115638300,10.29863818359375,-5.48272180557251,6.035782337188721,-5.329493045806885
1728747501125648000,10.30864794921875,-14.178462028503418,3.797203779220581,-5.202600479125977
1728747501135657700,10.31865771484375,-17.99721336364746,0.38307225704193115,-6.222530364990234
1728747501145637000,10.32863720703125,-14.446613311767578,-1.644816517829895,-6.964732646942139
1728747501155616300,10.3386162109375,-11.599906921386719,-1.2425906658172607,-6.560112476348877
1728747501165595400,10.348595458984375,-9.962273597717285,0.014365210197865963,-6.447585105895996
1728747501175574800,10.35857470703125,-9.461885452270508,0.6943184733390808,-6.861782073974609
1728747501185554000,10.368553955078125,-9.246406555175781,0.6991068720817566,-7.359776020050049
1728747501195563800,10.378563720703125,-8.564059257507324,0.7589619159698486,-7.374141216278076
1728747501205543000,10.38854296875,-7.718906402587891,0.9457096457481384,-7.424419403076172
1728747501215522300,10.398522216796875,-7.4986395835876465,0.8762778043746948,-7.493851184844971
1728747501225501400,10.40850146484375,-7.295132637023926,1.0630255937576294,-7.134721279144287
1728747501235511300,10.41851123046875,-7.060500621795654,1.4221558570861816,-6.914454460144043
1728747501245490400,10.428490478515625,-6.703764915466309,1.45806884765625,-6.878541469573975
1728747501255469800,10.4384697265625,-6.720524311065674,1.53707754611969,-6.658275127410889
1728747501265479400,10.4484794921875,-6.9024834632873535,1.601720929145813,-6.766014099121094
1728747501275489300,10.4584892578125,-6.845022678375244,1.314416766166687,-7.0341644287109375
1728747501285468700,10.46846875,-6.938396453857422,1.314416766166687,-6.825869083404541
1728747501295447800,10.47844775390625,-7.326257228851318,1.6208745241165161,-7.151480674743652
1728747501305427000,10.488427001953125,-7.589619159698486,1.314416766166687,-7.750030994415283
1728747501315436800,10.498436767578125,-7.627926826477051,1.0893617868423462,-7.762001991271973
1728747501325416000,10.508416015625,-7.857769966125488,1.3311761617660522,-7.587224960327148
1728747501335425800,10.51842578125,-7.2352776527404785,1.235408067703247,-7.891288757324219
1728747501345405200,10.5284052734375,-6.402095317840576,0.9481038451194763,-7.908048152923584
1728747501355384300,10.53838427734375,-5.966350555419922,0.9074024558067322,-7.620744228363037
1728747501365363500,10.548363525390625,-5.66228723526001,0.8403648138046265,-7.398083209991455
1728747501375373300,10.558373291015625,-5.463568210601807,0.8906430602073669,-7.24485445022583
1728747501385383200,10.568383056640625,-5.781997203826904,1.400607943534851,-7.141903877258301
1728747501395392800,10.578392822265625,-6.335057735443115,1.4748282432556152,-7.546523571014404
1728747501405372200,10.5883720703125,-6.557718276977539,1.2018892765045166,-8.015787124633789
1728747501415381800,10.5983818359375,-6.830657482147217,1.094150185585022,-8.212111473083496
1728747501425361200,10.608361083984375,-6.354211330413818,1.015141487121582,-8.427590370178223
1728747501435371000,10.61837109375,-5.396530628204346,0.811634361743927,-8.51138687133789
1728747501445350100,10.62835009765625,-5.154716491699219,0.8140285611152649,-8.422801971435547
1728747501455329300,10.638329345703125,-5.279214859008789,0.6919242739677429,-8.640673637390137
1728747501465308700,10.64830859375,-4.790797710418701,0.6560112833976746,-8.31985092163086
1728747501475287800,10.658287841796875,-4.252102375030518,0.7134721279144287,-7.769184589385986
1728747501485267200,10.66826708984375,-4.675876140594482,0.4836287498474121,-7.249642848968506
1728747501495276800,10.67827685546875,-4.165910720825195,0.3711012601852417,-6.8162922859191895
1728747501505256200,10.688256103515625,-3.9863457679748535,0.7254431247711182,-6.452373504638672
1728747501515265800,10.698265869140625,-4.264073371887207,0.9720458984375,-6.253654956817627
1728747501525245200,10.7082451171875,-4.333505153656006,1.0342950820922852,-6.045359134674072
1728747501535224300,10.718224365234375,-4.2090067863464355,1.1037269830703735,-6.143521785736084
1728747501545234200,10.728234130859375,-4.398148536682129,1.5131354331970215,-5.8657941818237305
1728747501555244000,10.738244140625,-5.4252610206604,1.5442601442337036,-5.7341132164001465
1728747501565253600,10.748253662109375,-6.009446144104004,1.3000515699386597,-5.959167957305908
1728747501575263500,10.758263427734375,-6.380547523498535,1.216254472732544,-5.916072368621826
1728747501585273300,10.7682734375,-15.512032508850098,2.7006595134735107,-3.77565598487854
1728747501595283000,10.778282958984375,-8.865729331970215,3.0526070594787598,-4.704606533050537
1728747501605262300,10.788262451171875,-8.2312650680542,3.313575267791748,-5.552153587341309
1728747501615272000,10.79827197265625,-6.452373504638672,3.3494882583618164,-4.575319290161133
1728747501625251300,10.808251220703125,-4.481945514678955,3.1914708614349365,-4.78122091293335
1728747501635230500,10.81823046875,-10.613495826721191,3.3734302520751953,-4.302380561828613
1728747501645209900,10.8282099609375,-10.577583312988281,2.87064790725708,-5.389348030090332
1728747501655219500,10.838219482421875,-7.752425193786621,2.6240451335906982,-5.638344764709473
1728747501665198800,10.84819873046875,-8.458714485168457,2.140416383743286,-4.970362663269043
1728747501675178000,10.858177978515625,-9.493009567260742,2.2912509441375732,-4.5394062995910645
1728747501685157400,10.868157470703125,-9.586383819580078,2.6575639247894287,-3.825934410095215
1728747501695167000,10.8781669921875,-10.445901870727539,2.851494312286377,-3.6846764087677
1728747501705146400,10.888146484375,-10.086771965026855,2.4420857429504395,-3.9384617805480957
1728747501715156000,10.898156005859375,-8.212111473083496,1.6519991159439087,-3.5242648124694824
1728747501725165800,10.908165771484375,-3.5745432376861572,0.9457096457481384,-2.6001031398773193
1728747501735175700,10.91817578125,-7.0126166343688965,0.524330198764801,-3.7900211811065674
1728747501745185300,10.928185302734375,-9.543288230895996,0.13168109953403473,-3.581725835800171
1728747501755164700,10.93816455078125,-7.137115478515625,-0.3016694188117981,-2.7557260990142822
1728747501765143800,10.948143798828125,-5.841852188110352,-0.18914192914962769,-2.183511972427368
1728747501775153700,10.958153564453125,-5.3797712326049805,-0.05746084079146385,-2.3942017555236816
1728747501785163300,10.968163330078125,-5.995080947875977,0.35913026332855225,-2.47560453414917
1728747501795173000,10.978173095703125,-6.943184852600098,0.6272808313369751,-2.5713725090026855
1728747501805152500,10.988152587890625,-8.008605003356934,0.5315127968788147,-2.9879636764526367
1728747501815131600,10.998131591796875,-9.050082206726074,0.090979665517807,-3.713406801223755
1728747501825110800,11.00811083984375,-8.540117263793945,-0.3208230137825012,-4.168305397033691
1728747501835120600,11.01812060546875,-7.759607791900635,-0.13168109953403473,-4.350264549255371
1728747501845099800,11.028099853515625,-7.625532627105713,0.17238251864910126,-4.551377296447754
1728747501855079200,11.0380791015625,-7.558494567871094,0.47165772318840027,-4.771644115447998
1728747501865058300,11.048058349609375,-7.671022415161133,0.8738836050033569,-5.003881454467773
1728747501875068200,11.058068115234375,-7.898471355438232,1.139639973640442,-5.252878665924072
1728747501885047300,11.06804736328125,-8.283937454223633,1.3862427473068237,-5.669469833374023
1728747501895026700,11.078026611328125,-8.643068313598633,1.6208745241165161,-5.4252610206604
1728747501905005800,11.088005859375,-8.935160636901855,1.824381709098816,-4.173093795776367
1728747501914985200,11.097985107421875,-8.755595207214355,2.4851813316345215,-4.197035789489746
1728747501924964400,11.10796435546875,-9.05247688293457,2.8778305053710938,-4.228160381317139
1728747501934943700,11.11794384765625,-8.676587104797363,2.7269957065582275,-4.422090530395508
1728747501944923000,11.1279228515625,-8.334216117858887,2.3080103397369385,-4.388571739196777
1728747501954932700,11.1379326171875,-7.582436561584473,2.0398597717285156,-4.505887508392334
1728747501964942300,11.1479423828125,-7.860164165496826,1.9560627937316895,-4.537012100219727
1728747501974952200,11.1579521484375,-8.24084186553955,1.9081788063049316,-4.850652694702148
1728747501984962000,11.167962158203125,-8.633491516113281,1.8626888990402222,-4.865017890930176
1728747501994971600,11.1779716796875,-8.81784439086914,1.577778935432434,-4.886565685272217
1728747502004981500,11.1879814453125,-8.377311706542969,1.2976573705673218,-4.869806289672852
1728747502014991400,11.197991455078125,-8.322244644165039,1.2114660739898682,-4.55616569519043
1728747502025001000,11.2080009765625,-8.662221908569336,1.0007762908935547,-4.395754337310791
1728747502035010800,11.2180107421875,-8.62630844116211,1.4724340438842773,-4.891354084014893
1728747502044990000,11.227989990234375,-8.700529098510742,1.742978811264038,-5.303156852722168
1728747502054969300,11.23796923828125,-9.107542991638184,1.9919757843017578,-5.633556365966797
1728747502064948500,11.247948486328125,-9.816226959228516,2.190694570541382,-5.899312973022461
1728747502074927900,11.257927978515625,-10.769119262695312,2.298433542251587,-6.260837554931641
1728747502084907000,11.267906982421875,-11.334151268005371,2.205059766769409,-6.452373504638672
1728747502094886400,11.277886474609375,-11.863269805908203,1.9129672050476074,-6.5481414794921875
1728747502104896000,11.28789599609375,-11.975796699523926,1.5849615335464478,-6.756437301635742
1728747502114905900,11.29790576171875,-11.707646369934082,1.4748282432556152,-6.871358871459961
1728747502124885000,11.307885009765625,-11.456254959106445,1.2306196689605713,-6.8043212890625
1728747502134864400,11.317864501953125,-11.267112731933594,1.0678139925003052,-6.708553314208984
1728747502144843500,11.327843505859375,-10.927136421203613,0.9217676520347595,-6.586448669433594
1728747502154823000,11.337822998046875,-10.038887977600098,0.3447650372982025,-6.509834289550781
1728747502164802000,11.347802001953125,-10.704475402832031,0.0071826050989329815,-6.368576526641846
1728747502174812000,11.35781201171875,-12.808979034423828,0.6536170840263367,-6.016628742218018
1728747502184791000,11.367791015625,-13.163320541381836,0.4668693244457245,-5.889736175537109
1728747502194801000,11.37780078125,-13.002909660339355,0.16519992053508759,-6.260837554931641
1728747502204780000,11.387780029296875,-12.318167686462402,-0.07422025501728058,-6.212953567504883
1728747502214759400,11.397759521484375,-11.39400577545166,-0.3208230137825012,-6.074089527130127
1728747502224738600,11.407738525390625,-10.65898609161377,-0.5793967843055725,-5.92325496673584
1728747502234748400,11.41774853515625,-10.587160110473633,-0.5889736413955688,-5.801150798797607
1728747502244758000,11.427758056640625,-11.14500904083252,-0.5650315880775452,-5.659893035888672
1728747502254767900,11.437767822265625,-11.468226432800293,-0.569819986820221,-5.686229228973389
1728747502264777700,11.44777783203125,-11.779472351074219,-0.507570743560791,-5.758055210113525
1728747502274787300,11.457787353515625,-11.772290229797363,-0.4141969084739685,-5.839457988739014
1728747502284766700,11.4677666015625,-11.257535934448242,-0.2968810200691223,-5.7772088050842285
1728747502294745900,11.477745849609375,-10.54406452178955,-0.1388636976480484,-5.681440830230713
1728747502304725200,11.487725341796875,-10.500968933105469,0.1149216815829277,-5.456385612487793
1728747502314704400,11.497704345703125,-10.335768699645996,0,-5.03021764755249
1728747502324683500,11.50768359375,-10.108319282531738,-0.10534487664699554,-5.0254292488098145
1728747502334693400,11.517693359375,-10.041281700134277,-0.27054479718208313,-5.066130638122559
1728747502344672800,11.5276728515625,-10.220847129821777,-0.5267243981361389,-5.027823448181152
1728747502354652000,11.53765185546875,-10.366893768310547,-0.6775590777397156,-4.994304656982422
1728747502364631000,11.547631103515625,-10.283096313476562,-0.8355764150619507,-4.845864295959473
1728747502374641000,11.557640869140625,-10.122684478759766,-0.8690952062606812,-4.537012100219727
1728747502384620300,11.567620361328125,-9.543288230895996,-0.7015010714530945,-4.414907932281494
1728747502394630000,11.5776298828125,-9.354146003723145,-0.7661445140838623,-3.8355112075805664
1728747502404639700,11.5876396484375,-8.99740982055664,-1.0965443849563599,-3.6822822093963623
1728747502414649300,11.5976494140625,-8.990227699279785,-1.3527239561080933,-3.691859006881714
1728747502424628700,11.607628662109375,-9.047688484191895,-1.721431016921997,-3.600879430770874
1728747502434607900,11.61760791015625,-9.02135181427002,-1.8962076902389526,-3.622427225112915
1728747502444587300,11.627587158203125,-8.746018409729004,-1.9273324012756348,-3.378218650817871
1728747502454566400,11.63756640625,-8.832210540771484,-2.0254945755004883,-2.808398485183716
1728747502464545800,11.6475458984375,-8.798690795898438,-1.946485996246338,-2.6599581241607666
1728747502474555400,11.657555419921875,-8.916007041931152,-1.7980455160140991,-2.3080103397369385
1728747502484534800,11.66753466796875,-8.89445972442627,-1.8387469053268433,-1.8171991109848022
1728747502494514000,11.677513916015625,-8.702922821044922,-1.900996208190918,-1.5825673341751099
1728747502504523800,11.687523681640625,-8.396465301513672,-1.9273324012756348,-1.460463047027588
1728747502514533400,11.697533447265625,-8.281543731689453,-1.9536685943603516,-1.3766659498214722
1728747502524543200,11.707543212890625,-7.627926826477051,-2.0015525817871094,-1.213860273361206
1728747502534553000,11.717552978515625,-7.086836814880371,-1.9512743949890137,-1.1563993692398071
1728747502544532200,11.7275322265625,-6.574477672576904,-2.0015525817871094,-0.9002198576927185
1728747502554511600,11.73751171875,-6.14831018447876,-2.1523873805999756,-0.7110779285430908
1728747502564490800,11.74749072265625,-5.7772088050842285,-2.3367409706115723,-0.5913678407669067
1728747502574500600,11.75750048828125,-5.458779811859131,-2.650381326675415,-0.4644751250743866
1728747502584479700,11.767479736328125,-5.054159641265869,-2.80361008644104,-0.6799532771110535
1728747502594459100,11.777459228515625,-4.800374507904053,-2.717418909072876,-0.8882488012313843
1728747502604438300,11.787438232421875,-4.668693542480469,-2.4827871322631836,-0.6512228846549988
1728747502614448000,11.7974482421875,-4.613626480102539,-2.2194249629974365,-0.24899697303771973
1728747502624427300,11.80742724609375,-4.395754337310791,-1.766920804977417,0.18914192914962769
1728747502634437000,11.81743701171875,-4.062960147857666,-1.3670891523361206,0.545877993106842
1728747502644416300,11.827416259765625,-3.7445313930511475,-1.1635819673538208,0.8954314589500427
1728747502654395600,11.837395751953125,-3.6822822093963623,-1.0103530883789062,1.2497732639312744
1728747502664374800,11.847374755859375,-3.6152446269989014,-0.9433154463768005,1.5705963373184204
1728747502674354200,11.857354248046875,-3.5865142345428467,-0.8762778043746948,1.6903064250946045
1728747502684333300,11.867333251953125,-3.6942532062530518,-0.7158663272857666,1.7357962131500244
1728747502694343200,11.87734326171875,-3.976768970489502,-0.6153098344802856,1.9249382019042969
1728747502704322300,11.887322265625,-4.570530891418457,-0.5171475410461426,1.5825673341751099
1728747502714301400,11.897301513671875,-5.274426460266113,-0.4812345504760742,1.3096283674240112
1728747502724280800,11.90728076171875,-5.7772088050842285,-0.44532153010368347,1.0319008827209473
1728747502734260000,11.917260009765625,-6.327875137329102,-0.2561795711517334,1.1180921792984009
1728747502744239400,11.9272392578125,-6.97430944442749,-0.20350714027881622,1.647210717201233
1728747502754218500,11.937218505859375,-7.175422668457031,-0.33039984107017517,2.051830768585205
1728747502764198000,11.947197998046875,-7.168240070343018,-0.6751648783683777,2.205059766769409
1728747502774207500,11.95720751953125,-6.962338447570801,-1.0271124839782715,2.142810583114624
1728747502784187000,11.967186767578125,-6.457161903381348,-1.3455413579940796,2.0231003761291504
1728747502794196500,11.977196533203125,-6.169857978820801,-1.699883222579956,1.764526605606079
1728747502804206300,11.987206298828125,-6.260837554931641,-1.9129672050476074,1.3431471586227417
1728747502814216200,11.99721630859375,-6.964732646942139,-1.8626888990402222,1.161187767982483
1728747502824225800,12.007225830078125,-7.82185697555542,-1.9297266006469727,1.922544002532959
1728747502834205200,12.017205078125,-8.578424453735352,-1.8818424940109253,1.9800047874450684
1728747502844184300,12.027184326171875,-9.48343276977539,-1.8531121015548706,1.824381709098816
1728747502854194200,12.037194091796875,-10.29746150970459,-2.008735179901123,1.8507179021835327
1728747502864203800,12.047203857421875,-10.319009780883789,-2.1715409755706787,1.558625340461731
1728747502874183200,12.05718310546875,-10.589553833007812,-2.387019157409668,1.0654197931289673
1728747502884162300,12.067162353515625,-11.870451927185059,-2.6575639247894287,0.9481038451194763
1728747502894172200,12.077172119140625,-12.351686477661133,-2.851494312286377,0.9720458984375
1728747502904151300,12.0871513671875,-12.425907135009766,-2.8131868839263916,0.8786720037460327
1728747502914130700,12.097130615234375,-12.136208534240723,-2.80361008644104,0.8906430602073669
1728747502924109800,12.10710986328125,-11.322179794311523,-2.6360161304473877,0.8690952062606812
1728747502934089200,12.117089111328125,-10.527304649353027,-2.4851813316345215,0.6799532771110535
1728747502944068400,12.127068359375,-10.793061256408691,-2.1739351749420166,0.9097966551780701
1728747502954078200,12.137078125,-11.39161205291748,-1.7549498081207275,1.3072341680526733
1728747502964088000,12.147088134765625,-11.520898818969727,-1.2186486721038818,1.1061211824417114
1728747502974097700,12.15709765625,-11.903970718383789,-1.1061211824417114,1.436521053314209
1728747502984077000,12.1670771484375,-11.863269805908203,-0.9385270476341248,1.259350061416626
1728747502994056200,12.17705615234375,-11.513715744018555,-0.7589619159698486,0.9672574996948242
1728747503004035300,12.187035400390625,-10.747570991516113,-0.7972691655158997,0.5770025849342346
1728747503014045200,12.197045166015625,-9.641449928283691,-0.8451532125473022,0.1149216815829277
1728747503024024600,12.207024658203125,-8.755595207214355,-0.7326257228851318,-0.3280056416988373
1728747503034003700,12.217003662109375,-8.413225173950195,-0.5746083855628967,-0.8523358106613159
1728747503043982800,12.22698291015625,-9.478644371032715,-0.5889736413955688,-1.094150185585022
1728747503053992700,12.23699267578125,-10.000580787658691,-0.42377370595932007,-1.699883222579956
1728747503063972000,12.24697216796875,-10.611102104187012,-0.3711012601852417,-1.8698714971542358
1728747503073951200,12.256951171875,-11.288661003112793,-0.5051765441894531,-2.1499931812286377
1728747503083930400,12.266930419921875,-11.561599731445312,-0.7493851184844971,-2.5234885215759277
1728747503093909800,12.27690966796875,-12.255918502807617,-1.0678139925003052,-2.911349296569824
1728747503103889000,12.286888916015625,-14.171279907226562,-1.170764684677124,-3.251325845718384
1728747503113898800,12.296898681640625,-16.910245895385742,-1.0845733880996704,-3.002328872680664
1728747503123908600,12.30690869140625,-19.57978057861328,-0.9840168952941895,-2.80361008644104
1728747503133918200,12.316918212890625,-19.86948013305664,-0.8930372595787048,-3.512293815612793
1728747503143897600,12.326897705078125,-18.588581085205078,-0.646434485912323,-3.9217023849487305
1728747503153876700,12.336876708984375,-16.733076095581055,-0.45010992884635925,-3.5003228187561035
1728747503163856100,12.346856201171875,-14.585476875305176,-0.31364041566848755,-3.801992416381836
1728747503173865700,12.35686572265625,-12.978967666625977,-0.2322375625371933,-4.479551315307617
1728747503183845000,12.36684521484375,-11.695674896240234,-0.5099649429321289,-3.971980571746826
1728747503193854700,12.376854736328125,-11.015722274780273,-0.8044517636299133,-3.28963303565979
1728747503203834000,12.386834228515625,-10.539276123046875,-0.8355764150619507,-2.846705913543701
1728747503213813200,12.396813232421875,-10.381258964538574,-0.9624691009521484,-2.4181437492370605
1728747503223823000,12.406822998046875,-9.8784761428833,-0.9385270476341248,-2.315192937850952
1728747503233832700,12.416832763671875,-9.265560150146484,-0.7374141216278076,-2.1092917919158936
1728747503243842600,12.426842529296875,-8.523358345031738,-0.21547815203666687,-1.7190368175506592
1728747503253852400,12.436852294921875,-8.099584579467773,0.33997663855552673,-1.0007762908935547
1728747503263831600,12.44683154296875,-8.248024940490723,0.6991068720817566,-0.07182604819536209
1728747503273811000,12.45681103515625,-7.996633529663086,0.730231523513794,0.3232172429561615
1728747503283790000,12.4667900390625,-7.69735860824585,0.5482721924781799,0.29209262132644653
1728747503293800000,12.476800048828125,-7.340622425079346,0.15801730751991272,0.19393034279346466
1728747503303779000,12.486779052734375,-6.897695064544678,-0.35434186458587646,0.026336219161748886
1728747503313758500,12.496758544921875,-6.411672115325928,-0.6248866319656372,-0.05985504388809204
1728747503323737600,12.506737548828125,-6.3518171310424805,-0.47884035110473633,0.23942017555236816
1728747503333747500,12.51674755859375,-6.430825710296631,-0.40462008118629456,0.43095630407333374
1728747503343726600,12.5267265625,-6.801927089691162,-0.35434186458587646,0.5961562395095825
1728747503353736400,12.536736328125,-7.122750282287598,-0.17238251864910126,0.5626373887062073
1728747503363715600,12.546715576171875,-7.762001991271973,0.023942016065120697,0.6512228846549988
1728747503373695000,12.556695068359375,-8.310274124145508,-0.15083470940589905,0.8978256583213806
1728747503383643600,12.5666435546875,-8.686163902282715,-0.272938996553421,0.8355764150619507
1728747503393653200,12.5766533203125,-8.860940933227539,-0.24899697303771973,0.7709329724311829
1728747503403663000,12.5866630859375,-8.762778282165527,-0.11971008777618408,0.9002198576927185
1728747503413673000,12.5966728515625,-8.38688850402832,0.14604631066322327,1.2521674633026123
1728747503423652000,12.606652099609375,-7.99184513092041,0.6177040338516235,1.479616641998291
1728747503433631500,12.616631591796875,-7.82185697555542,1.0342950820922852,1.9153614044189453
1728747503443610600,12.626610595703125,-7.90086555480957,1.4724340438842773,2.4803929328918457
1728747503453620500,12.636620361328125,-8.286332130432129,1.558625340461731,2.9496564865112305
1728747503463599600,12.646599609375,-8.552088737487793,1.3072341680526733,2.8347349166870117
1728747503473579000,12.6565791015625,-8.561665534973145,1.0007762908935547,2.535459518432617
1728747503483588600,12.666588623046875,-8.719682693481445,0.7757213711738586,2.434903144836426
1728747503493598500,12.676598388671875,-8.556877136230469,0.6655880808830261,2.298433542251587
1728747503503577600,12.68657763671875,-8.10437297821045,0.7422025203704834,2.2625205516815186
1728747503513557000,12.696556884765625,-7.7763671875,0.9696516990661621,2.2912509441375732
1728747503523536100,12.7065361328125,-7.783549785614014,1.0797849893569946,2.3989901542663574
1728747503533546000,12.7165458984375,-7.864952564239502,0.9696516990661621,2.540247917175293
1728747503543525000,12.726525146484375,-7.951143741607666,0.7829039692878723,2.698265314102173
1728747503553504500,12.73650439453125,-7.608773231506348,0.6153098344802856,2.580949544906616
1728747503563483600,12.746483642578125,-7.735665798187256,0.4141969084739685,2.6575639247894287
1728747503573463000,12.756463134765625,-8.434772491455078,0.10295066982507706,2.7533318996429443
1728747503583472600,12.76647265625,-8.422801971435547,0.031124621629714966,2.583343744277954
1728747503593452000,12.7764521484375,-8.643068313598633,-0.1173158809542656,2.564189910888672
1728747503603461600,12.786461669921875,-9.14585018157959,-0.38067805767059326,2.6216509342193604
1728747503613471500,12.796471435546875,-9.253589630126953,-0.6009446382522583,2.3247697353363037
1728747503623450600,12.80645068359375,-9.315838813781738,-0.8451532125473022,2.231395959854126
