time,seconds_elapsed,z,y,x
1728937941140300800,0.12230078125,9.526528358459473,5.817910194396973,0.3423708379268646
1728937941150280200,0.1322802734375,9.593565940856934,5.262455463409424,0.2849099934101105
1728937941160259300,0.14225927734375,9.555258750915527,4.726154327392578,0.26815059781074524
1728937941170238700,0.15223876953125,9.48343276977539,4.137180328369141,0.3447650372982025
1728937941180217900,0.1622177734375,9.38048267364502,3.5936968326568604,0.2106897532939911
1728937941190197000,0.172197021484375,9.198522567749023,3.1914708614349365,0.12689268589019775
1728937941200146000,0.18214599609375,9.05487060546875,2.940079689025879,0.08140286058187485
1728937941210186200,0.192186279296875,8.889671325683594,2.875436305999756,0.05985504388809204
1728937941220165400,0.202165283203125,8.774748802185059,3.0597896575927734,0.10534487664699554
1728937941230175200,0.21217529296875,8.738836288452148,3.294421434402466,0.38307225704193115
1728937941240154400,0.222154296875,8.547300338745117,3.6607344150543213,0.49559974670410156
1728937941250133500,0.232133544921875,8.523358345031738,3.955221176147461,0.40222588181495667
1728937941260082400,0.24208251953125,8.406042098999023,4.335899353027344,0.3447650372982025
1728937941270122800,0.252122802734375,8.480262756347656,4.503493309020996,0.2346317619085312
1728937941280102000,0.262101806640625,8.621520042419434,4.608838081359863,0.14844051003456116
1728937941290111700,0.27211181640625,8.848969459533691,4.60165548324585,0.10534487664699554
1728937941300091000,0.2820908203125,9.284713745117188,4.570530891418457,-0.0454898327589035
1728937941310100700,0.292100830078125,9.5624418258667,4.534617900848389,-0.15801730751991272
1728937941320110300,0.3021103515625,9.421183586120605,4.268861770629883,-0.35673606395721436
1728937941330120200,0.3121201171875,8.98543930053711,3.907337188720703,-0.42616790533065796
1728937941340099300,0.322099365234375,8.56884765625,3.6822822093963623,-0.2537853717803955
1728937941350078700,0.33207861328125,8.382100105285645,3.7014358043670654,-0.06464344263076782
1728937941360088600,0.342088623046875,8.221688270568848,3.8283286094665527,0.1388636976480484
1728937941370067700,0.352067626953125,8.291120529174805,4.050989151000977,0.3064578175544739
1728937941380016400,0.362016357421875,9.002198219299316,4.280832767486572,0.304063618183136
1728937941390056700,0.372056640625,9.758766174316406,4.5609540939331055,0.26575639843940735
1728937941400036000,0.3820361328125,9.8784761428833,4.5609540939331055,0.05985504388809204
1728937941410045700,0.392045654296875,9.50737476348877,4.2951979637146,-0.2561795711517334
1728937941420055600,0.4020556640625,9.01895809173584,3.909731388092041,-0.4620809257030487
1728937941430034700,0.41203466796875,8.678980827331543,3.557783842086792,-0.5051765441894531
1728937941439983400,0.4219833984375,8.652645111083984,3.3662476539611816,-0.4668693244457245
1728937941450023700,0.432023681640625,8.765172004699707,3.361459255218506,-0.3926490843296051
1728937941460003000,0.442003173828125,9.153033256530762,3.4356794357299805,-0.3064578175544739
1728937941470012700,0.4520126953125,9.560047149658203,3.6128504276275635,-0.19871874153614044
1728937941480022500,0.4620224609375,9.914389610290527,3.7852327823638916,-0.17477671802043915
1728937941490002000,0.472001953125,10.091560363769531,3.7900211811065674,-0.23702596127986908
1728937941499950600,0.48195068359375,9.806650161743164,3.883395195007324,-0.2322375625371933
1728937941509960200,0.491960205078125,9.48343276977539,3.84269380569458,-0.27054479718208313
1728937941519970000,0.501969970703125,9.081207275390625,3.6559460163116455,-0.31842881441116333
1728937941529949200,0.51194921875,8.884882926940918,3.6128504276275635,-0.31842881441116333
1728937941539928600,0.521928466796875,9.124302864074707,3.598485231399536,-0.33997663855552673
1728937941549938400,0.5319384765625,9.282320022583008,3.5410242080688477,-0.47644615173339844
1728937941559948000,0.541947998046875,9.332598686218262,3.536235809326172,-0.5674257874488831
1728937941569927400,0.551927490234375,9.375694274902344,3.643975019454956,-0.5291185975074768
1728937941579906600,0.561906494140625,9.387664794921875,3.799597978591919,-0.45489832758903503
1728937941589886000,0.571885986328125,9.311050415039062,3.861847400665283,-0.38067805767059326
1728937941599834600,0.581834716796875,9.167398452758789,3.8331170082092285,-0.3687070608139038
1728937941609844200,0.59184423828125,9.117119789123535,3.801992416381836,-0.3687070608139038
1728937941619823600,0.60182373046875,9.083600997924805,3.77565598487854,-0.3734954595565796
1728937941629833200,0.611833251953125,9.14345645904541,3.7158010005950928,-0.3687070608139038
1728937941639812600,0.6218125,9.133879661560059,3.6391866207122803,-0.40701428055763245
1728937941649791700,0.631791748046875,9.107542991638184,3.598485231399536,-0.4692635238170624
1728937941659740700,0.64174072265625,9.071630477905273,3.6607344150543213,-0.4596867263317108
1728937941669750300,0.651750244140625,8.947132110595703,3.7014358043670654,-0.4644751250743866
1728937941679760100,0.661760009765625,8.904036521911621,3.708618402481079,-0.48602294921875
1728937941689739300,0.6717392578125,8.990227699279785,3.758896589279175,-0.5410895943641663
1728937941699688200,0.681688232421875,9.148244857788086,3.780444383621216,-0.6033388376235962
1728937941709728300,0.691728271484375,9.351752281188965,3.6966474056243896,-0.6368576288223267
1728937941719707600,0.701707763671875,9.521739959716797,3.557783842086792,-0.6847416758537292
1728937941729686800,0.711686767578125,9.399636268615723,3.4739866256713867,-0.6919242739677429
1728937941739666200,0.721666259765625,8.645462036132812,3.5745432376861572,-0.7852981686592102
1728937941749675800,0.73167578125,9.299078941345215,3.840299606323242,-0.7589619159698486
1728937941759655200,0.7416552734375,9.710882186889648,4.177882194519043,-0.7589619159698486
1728937941769634300,0.75163427734375,9.880870819091797,4.079719543457031,-0.8188169598579407
1728937941779583000,0.7615830078125,9.72285270690918,3.8379054069519043,-0.849941611289978
1728937941789623300,0.771623291015625,9.452308654785156,3.598485231399536,-0.8307880163192749
1728937941799602700,0.781602783203125,9.354146003723145,3.4763808250427246,-0.7637503147125244
1728937941809581800,0.791581787109375,9.437943458557129,3.514688014984131,-0.6416460275650024
1728937941819530500,0.801530517578125,9.600749015808105,3.8163576126098633,-0.40701428055763245
1728937941829570800,0.81157080078125,9.385271072387695,3.84269380569458,-0.4812345504760742
1728937941839550200,0.82155029296875,9.17697525024414,3.840299606323242,-0.5817909836769104
1728937941849529300,0.831529296875,9.066842079162598,3.754108190536499,-0.6799532771110535
1728937941859508700,0.8415087890625,9.059659004211426,3.7038300037384033,-0.7134721279144287
1728937941869487900,0.85148779296875,9.030928611755371,3.6942532062530518,-0.6703764796257019
1728937941879467000,0.861467041015625,8.944737434387207,3.6320040225982666,-0.667982280254364
1728937941889446400,0.8714462890625,8.968679428100586,3.5673606395721436,-0.7015010714530945
1728937941899425500,0.881425537109375,9.045293807983398,3.5458126068115234,-0.7158663272857666
1728937941909435400,0.891435302734375,8.892065048217773,3.533841609954834,-0.7733271718025208
1728937941919414500,0.90141455078125,9.2033109664917,3.780444383621216,-0.6488286852836609
1728937941929394000,0.911393798828125,9.500192642211914,4.022258758544922,-0.6320692300796509
1728937941939373000,0.921373046875,9.591172218322754,4.043806552886963,-0.667982280254364
1728937941949383000,0.9313828125,9.485827445983887,3.869029998779297,-0.790086567401886
1728937941959362000,0.941362060546875,9.315838813781738,3.6750996112823486,-0.8762778043746948
1728937941969372000,0.951371826171875,9.193734169006348,3.60566782951355,-0.9409212470054626
1728937941979381800,0.9613818359375,9.32302188873291,3.7445313930511475,-0.8044517636299133
1728937941989361000,0.97136083984375,9.167398452758789,3.7876269817352295,-0.7661445140838623
1728937941999340300,0.98134033203125,9.040505409240723,3.732560396194458,-0.7852981686592102
1728937942009380400,0.99138037109375,9.078812599182129,3.4955344200134277,-0.7805097699165344
1728937942019359700,1.00135986328125,9.196128845214844,3.318363666534424,-0.7445967197418213
1728937942029339000,1.0113388671875,9.402029991149902,3.3854012489318848,-0.6847416758537292
1728937942039348700,1.0213486328125,9.655815124511719,3.6296098232269287,-0.6751648783683777
1728937942049327900,1.031327880859375,9.75637149810791,3.998316764831543,-0.6751648783683777
1728937942059307300,1.041307373046875,9.610325813293457,4.247313976287842,-0.7206547260284424
1728937942069347600,1.05134765625,9.138668060302734,4.288015365600586,-0.689530074596405
1728937942079326700,1.06132666015625,9.030928611755371,4.259284973144531,-0.5937620401382446
1728937942089306000,1.07130615234375,9.01895809173584,4.242525577545166,-0.5147533416748047
1728937942099285200,1.08128515625,8.755595207214355,4.05817174911499,-0.49799394607543945
1728937942109295000,1.091295166015625,8.676587104797363,3.804386615753174,-0.5482721924781799
1728937942119274200,1.101274169921875,8.801085472106934,3.7636849880218506,-0.6200982332229614
1728937942129284000,1.1112841796875,9.172186851501465,3.8115692138671875,-0.6727706789970398
1728937942139293700,1.121293701171875,9.560047149658203,3.912125587463379,-0.6631938815116882
1728937942149273000,1.131273193359375,9.555258750915527,3.909731388092041,-0.6967126727104187
1728937942159282700,1.14128271484375,9.516951560974121,3.801992416381836,-0.6177040338516235
1728937942169262000,1.151261962890625,9.679757118225098,3.847482204437256,-0.31842881441116333
1728937942179210800,1.161210693359375,9.069235801696777,3.754108190536499,-0.22744916379451752
1728937942189251000,1.1712509765625,8.44195556640625,3.861847400665283,-0.6823474764823914
1728937942199230200,1.181230224609375,8.286332130432129,3.7038300037384033,-0.507570743560791
1728937942209209600,1.191209716796875,8.149862289428711,3.579331636428833,-0.3878606855869293
1728937942219158300,1.201158203125,8.066065788269043,3.603273630142212,-0.3208230137825012
1728937942229168000,1.211168212890625,7.9846625328063965,3.648763418197632,-0.3447650372982025
1728937942239177700,1.221177734375,7.91283655166626,3.706224203109741,-0.2537853717803955
1728937942249157000,1.2311572265625,8.070854187011719,3.8355112075805664,-0.3016694188117981
1728937942259136300,1.24113623046875,8.054094314575195,3.847482204437256,-0.395043283700943
1728937942269146000,1.25114599609375,8.451532363891602,3.6128504276275635,-0.395043283700943
1728937942279156000,1.261156005859375,9.289502143859863,3.0334534645080566,-0.7230489253997803
1728937942289135000,1.271135009765625,9.509769439697266,2.4612393379211426,-1.1635819673538208
1728937942299114200,1.2811142578125,9.121908187866211,1.9273324012756348,-1.3718775510787964
1728937942309093600,1.29109375,8.62391471862793,1.41257905960083,-1.1971008777618408
1728937942319072800,1.30107275390625,8.585607528686523,1.278503656387329,-0.9002198576927185
1728937942329052200,1.31105224609375,8.753201484680176,1.8962076902389526,0.3998316824436188
1728937942339031300,1.32103125,9.75637149810791,2.5689783096313477,-0.9313444495201111
1728937942349010700,1.3310107421875,10.441113471984863,2.851494312286377,-1.659181833267212
1728937942358989800,1.34098974609375,10.630255699157715,3.6966474056243896,-1.9823989868164062
1728937942368999700,1.350999755859375,10.338163375854492,5.037400245666504,-1.37906014919281
1728937942378978800,1.360978759765625,10.019734382629395,5.8203043937683105,-0.5410895943641663
1728937942388988700,1.37098876953125,9.926360130310059,5.556941986083984,-0.2585737705230713
1728937942398998300,1.380998291015625,9.95748519897461,4.726154327392578,-0.6512228846549988
1728937942409008000,1.391008056640625,10.316615104675293,4.019864559173584,-1.1827356815338135
1728937942418987300,1.4009873046875,11.537657737731934,3.581725835800171,-1.357512354850769
1728937942429027600,1.411027587890625,10.201693534851074,3.6367924213409424,-1.6831238269805908
1728937942439007000,1.421007080078125,10.077195167541504,4.383783340454102,-0.7924807667732239
1728937942449016600,1.4310166015625,10.54406452178955,4.129997730255127,-1.0055646896362305
1728937942458996000,1.440995849609375,10.465055465698242,3.7014358043670654,-1.0654197931289673
1728937942468975000,1.45097509765625,10.5344877243042,3.2848446369171143,-1.0582371950149536
1728937942478954500,1.46095458984375,9.169792175292969,3.466804027557373,-0.5746083855628967
1728937942488933600,1.47093359375,8.927978515625,3.4787750244140625,-0.11013327538967133
1728937942498913000,1.4809130859375,8.676587104797363,3.3686418533325195,-0.031124621629714966
1728937942508892200,1.49089208984375,8.59997272491455,3.318363666534424,-0.2753331959247589
1728937942518840800,1.5008408203125,9.090784072875977,3.2776620388031006,0.2753331959247589
1728937942528881200,1.510881103515625,8.832210540771484,3.3686418533325195,0.19393034279346466
1728937942538860500,1.520860595703125,8.968679428100586,3.6128504276275635,0.47405192255973816
1728937942548839700,1.530839599609375,8.983044624328613,3.794809579849243,0.8236053586006165
1728937942558818800,1.54081884765625,8.667010307312012,3.7924153804779053,1.1420341730117798
1728937942568828700,1.55082861328125,8.066065788269043,3.6942532062530518,1.359906554222107
1728937942578777300,1.56077734375,7.960720539093018,3.4596214294433594,1.4413094520568848
1728937942588817700,1.570817626953125,8.396465301513672,3.1292216777801514,1.3479355573654175
1728937942598797000,1.580797119140625,8.959102630615234,2.760514497756958,1.2330138683319092
1728937942608776200,1.590776123046875,9.244012832641602,2.4588451385498047,1.3263877630233765
1728937942618755600,1.600755615234375,9.344569206237793,2.31758713722229,1.3958195447921753
1728937942628765200,1.61076513671875,9.84256362915039,2.169146776199341,1.280897855758667
1728937942638744600,1.62074462890625,10.321403503417969,1.8291701078414917,1.2234370708465576
1728937942648784600,1.63078466796875,10.022128105163574,1.7884687185287476,0.9672574996948242
1728937942658764000,1.640763916015625,10.290278434753418,1.9369091987609863,0.7015010714530945
1728937942668774000,1.65077392578125,10.321403503417969,2.0470423698425293,0.4668693244457245
1728937942678753000,1.6607529296875,9.876082420349121,2.0207061767578125,0.10055647045373917
1728937942688732200,1.670732177734375,9.639056205749512,2.0829553604125977,0.040701430290937424
1728937942698711600,1.680711669921875,9.62947940826416,2.054224967956543,-0.2346317619085312
1728937942708690700,1.690690673828125,9.864110946655273,2.5115175247192383,-0.6703764796257019
1728937942718670000,1.700670166015625,10.019734382629395,3.00711727142334,-1.4101848602294922
1728937942728679700,1.7106796875,9.99100399017334,3.246537446975708,-1.9297266006469727
1728937942738689500,1.720689453125,9.452308654785156,3.620033025741577,-1.4772224426269531
1728937942748699400,1.730699462890625,9.914389610290527,3.337517261505127,-1.1013327836990356
1728937942758678500,1.740678466796875,8.772355079650879,2.604891538619995,-2.118868589401245
1728937942768658000,1.750657958984375,8.31985092163086,3.641580820083618,-0.8690952062606812
1728937942778637000,1.760636962890625,8.674192428588867,2.6647465229034424,-2.161964178085327
1728937942788616200,1.7706162109375,7.3454108238220215,3.4524388313293457,-2.169146776199341
1728937942798595600,1.780595703125,8.401253700256348,4.108449935913086,-2.3918075561523438
1728937942808574700,1.79057470703125,9.282320022583008,3.620033025741577,-3.1675288677215576
1728937942818554000,1.80055419921875,9.210494041442871,3.825934410095215,-3.1076738834381104
1728937942828533200,1.810533203125,9.251194953918457,3.751713991165161,-3.1196448802948
1728937942838512600,1.8205126953125,9.703699111938477,3.222595453262329,-3.318363666534424
1728937942848491800,1.83049169921875,9.404424667358398,2.978386878967285,-3.9217023849487305
1728937942858471000,1.840470947265625,8.528146743774414,3.861847400665283,-2.5761611461639404
1728937942868480800,1.850480712890625,8.075642585754395,4.644751071929932,-2.0422539710998535
1728937942878460200,1.860460205078125,7.841010570526123,4.764461517333984,-2.011129379272461
1728937942888439300,1.870439208984375,8.01339340209961,4.618414878845215,-2.0805611610412598
1728937942898418400,1.88041845703125,7.9631147384643555,4.46518611907959,-2.0446481704711914
1728937942908428300,1.89042822265625,7.7643961906433105,4.649539470672607,-1.7357962131500244
1728937942918407700,1.90040771484375,7.659051418304443,4.659116744995117,-1.623268723487854
1728937942928417300,1.910417236328125,7.94635534286499,4.637568473815918,-1.644816517829895
1728937942938427100,1.92042724609375,8.4108304977417,4.738125324249268,-1.577778935432434
1728937942948406300,1.93040625,8.394071578979492,4.95120906829834,-1.53707754611969
1728937942958385700,1.9403857421875,8.432378768920898,5.035006046295166,-1.4245500564575195
1728937942968395300,1.950395263671875,8.346187591552734,4.9799394607543945,-1.381454348564148
1728937942978405000,1.960405029296875,8.1139497756958,4.8602294921875,-1.3287819623947144
1728937942988384300,1.97038427734375,7.915230751037598,4.891354084014893,-1.290474772453308
1728937942998363600,1.98036376953125,8.123526573181152,4.999093055725098,-1.3096283674240112
1728937943008373200,1.990373291015625,8.470685958862305,4.927267074584961,-1.381454348564148
1728937943018383000,2.000383056640625,8.571242332458496,5.023035049438477,-1.3766659498214722
1728937943028362500,2.010362548828125,8.78193187713623,5.12119722366333,-1.1563993692398071
1728937943038341600,2.020341552734375,8.786720275878906,5.190629482269287,-0.8307880163192749
1728937943048382000,2.0303818359375,8.652645111083984,5.293580055236816,-0.5482721924781799
1728937943058361000,2.040361083984375,8.59997272491455,5.406107425689697,-0.38546648621559143
1728937943068401400,2.0504013671875,8.71489429473877,5.370194435119629,-0.4213795065879822
1728937943078380800,2.060380859375,8.803479194641113,5.303156852722168,-0.49559974670410156
1728937943088360000,2.07035986328125,8.975862503051758,5.233725070953369,-0.545877993106842
1728937943098369800,2.080369873046875,9.41400146484375,5.085284233093262,-0.586579442024231
1728937943108349000,2.090348876953125,9.526528358459473,4.8722004890441895,-0.6416460275650024
1728937943118328300,2.100328369140625,9.315838813781738,4.81473970413208,-0.667982280254364
1728937943128368400,2.110368408203125,9.071630477905273,4.790797710418701,-0.629675030708313
1728937943138317300,2.1203173828125,8.956708908081055,4.577713489532471,-0.6392518281936646
1728937943148357600,2.130357666015625,9.01895809173584,4.278438568115234,-0.6105214357376099
1728937943158336800,2.140336669921875,7.2137298583984375,3.1723172664642334,0.22266076505184174
1728937943168316000,2.15031591796875,14.425065040588379,5.106832027435303,0.8212111592292786
1728937943178325800,2.16032568359375,7.625532627105713,3.88818359375,-0.3016694188117981
1728937943188335600,2.170335693359375,8.556877136230469,3.97916316986084,-0.1364694982767105
1728937943198314800,2.180314697265625,9.428366661071777,3.7469255924224854,0.24899697303771973
1728937943208355000,2.19035498046875,9.141061782836914,3.840299606323242,0.07661445438861847
1728937943218303700,2.2003037109375,9.17697525024414,4.02465295791626,-0.4692635238170624
1728937943228344000,2.210343994140625,9.016563415527344,4.046200752258301,-0.8643068075180054
1728937943238323200,2.2203232421875,8.779537200927734,4.1180267333984375,-1.0893617868423462
1728937943248363500,2.230363525390625,9.275136947631836,4.199429988861084,-1.256955862045288
1728937943258343000,2.240343017578125,9.440337181091309,4.168305397033691,-1.290474772453308
1728937943268322000,2.250322021484375,9.217676162719727,4.364629745483398,-1.4389152526855469
1728937943278301400,2.260301513671875,9.435548782348633,4.546588897705078,-1.3000515699386597
1728937943288311000,2.27031103515625,9.301473617553711,4.534617900848389,-1.1300631761550903
1728937943298260000,2.280260009765625,9.399636268615723,4.60165548324585,-1.0127472877502441
1728937943308300000,2.290300048828125,9.272743225097656,4.618414878845215,-1.015141487121582
1728937943318279400,2.300279541015625,9.138668060302734,4.496310710906982,-0.9265560507774353
1728937943328258600,2.310258544921875,8.995016098022461,4.46518611907959,-1.091755986213684
1728937943338268400,2.320268310546875,9.10993766784668,4.431667327880859,-1.0342950820922852
1728937943348247600,2.33024755859375,9.033323287963867,4.400542736053467,-1.1540051698684692
1728937943358196500,2.340196533203125,9.114726066589355,4.247313976287842,-1.0773907899856567
1728937943368236500,2.350236572265625,9.131484985351562,4.0533833503723145,-0.9193734526634216
1728937943378216000,2.3602158203125,9.11233139038086,4.055777549743652,-0.9696516990661621
1728937943388225800,2.370225830078125,8.999804496765137,4.060565948486328,-1.1228805780410767
1728937943398235400,2.3802353515625,9.011775016784668,4.039018154144287,-1.1252747774124146
1728937943408214800,2.39021484375,9.148244857788086,4.07014274597168,-1.0462661981582642
1728937943418163500,2.40016357421875,9.23443603515625,4.137180328369141,-1.0127472877502441
1728937943428173000,2.410173095703125,9.17936897277832,4.20421838760376,-1.113303780555725
1728937943438183000,2.420182861328125,9.05487060546875,4.28322696685791,-1.1875240802764893
1728937943448162300,2.430162353515625,9.045293807983398,4.355052947998047,-1.2186486721038818
1728937943458111000,2.440111083984375,8.925583839416504,4.3191399574279785,-1.173158884048462
1728937943468120600,2.45012060546875,9.069235801696777,4.129997730255127,-1.0558429956436157
1728937943478130400,2.46013037109375,9.248801231384277,4.132391929626465,-1.0319008827209473
1728937943488109800,2.47010986328125,9.129091262817383,4.216189384460449,-1.0534487962722778
1728937943498089000,2.4800888671875,8.99740982055664,4.230554580688477,-0.9648633003234863
1728937943508098800,2.490098876953125,9.114726066589355,4.137180328369141,-1.094150185585022
1728937943518108400,2.5001083984375,9.198522567749023,4.129997730255127,-1.0869675874710083
1728937943528118300,2.5101181640625,9.186552047729492,4.216189384460449,-0.9624691009521484
1728937943538097400,2.520097412109375,9.148244857788086,4.125209331512451,-0.8571242094039917
1728937943548107300,2.530107177734375,9.289502143859863,4.082113742828369,-0.8906430602073669
1728937943558117000,2.5401171875,9.39245319366455,4.127603530883789,-0.912190854549408
1728937943568126700,2.550126708984375,9.260771751403809,4.247313976287842,-0.9864110946655273
1728937943578106000,2.560106201171875,9.004592895507812,4.307168960571289,-1.015141487121582
1728937943588085200,2.570085205078125,8.949525833129883,4.266467571258545,-0.9720458984375
1728937943598034000,2.580033935546875,8.927978515625,4.0749311447143555,-0.8738836050033569
1728937943608043800,2.590043701171875,8.877699851989746,3.8091750144958496,-0.706289529800415
1728937943618053600,2.6000537109375,8.925583839416504,3.663128614425659,-0.6129156351089478
1728937943628032800,2.61003271484375,9.14345645904541,3.734954595565796,-0.7086837291717529
1728937943637981400,2.6199814453125,9.205705642700195,3.847482204437256,-0.8044517636299133
1728937943647991300,2.6299912109375,9.064447402954102,3.936067581176758,-0.8786720037460327
1728937943658001200,2.640001220703125,8.942343711853027,4.0294413566589355,-0.8810662031173706
1728937943667980300,2.649980224609375,9.006986618041992,4.07014274597168,-0.8259995579719543
1728937943677929000,2.659928955078125,9.095572471618652,4.005499362945557,-0.6775590777397156
1728937943687958800,2.669958740234375,9.083600997924805,3.9480385780334473,-0.5817909836769104
1728937943697968400,2.679968505859375,9.047688484191895,3.7708675861358643,-0.5578489899635315
1728937943707947800,2.68994775390625,8.78432559967041,3.6080620288848877,-0.5434837937355042
1728937943717927000,2.699927001953125,8.868123054504395,3.4596214294433594,-0.3734954595565796
1728937943727936800,2.709936767578125,8.712499618530273,3.426102638244629,-0.304063618183136
1728937943737916000,2.719916015625,8.537723541259766,3.4739866256713867,-0.2346317619085312
1728937943747925800,2.72992578125,8.5903959274292,3.4620156288146973,-0.16519992053508759
1728937943757935600,2.739935546875,8.65982723236084,3.423708438873291,-0.08379705995321274
1728937943767914800,2.749914794921875,8.645462036132812,3.3231520652770996,-0.014365210197865963
1728937943777894000,2.759893798828125,8.686163902282715,3.2297780513763428,0.1149216815829277
1728937943787873300,2.769873291015625,8.9064302444458,3.1507694721221924,0.1412578970193863
1728937943797852400,2.779852294921875,9.038111686706543,3.07415509223938,0.1149216815829277
1728937943807831800,2.789831787109375,9.222464561462402,2.956839084625244,0.1412578970193863
1728937943817811000,2.79981103515625,9.232041358947754,2.7676970958709717,0.021547814831137657
1728937943827790300,2.809790283203125,9.174580574035645,3.064578056335449,0.10055647045373917
1728937943837800000,2.819800048828125,9.279925346374512,3.7038300037384033,0.395043283700943
1728937943847809800,2.829809814453125,9.330204010009766,3.5721490383148193,0.26336219906806946
1728937943857728000,2.83972802734375,9.210494041442871,3.1076738834381104,0.004788403399288654
1728937943867737900,2.84973779296875,9.488221168518066,2.693476915359497,-0.1604115068912506
1728937943877717000,2.859717041015625,10.043676376342773,2.3080103397369385,-0.3064578175544739
1728937943887726800,2.869726806640625,10.022128105163574,2.070984363555908,-0.42856210470199585
1728937943897736400,2.879736328125,9.682151794433594,2.1045033931732178,-0.5315127968788147
1728937943907685400,2.889685302734375,9.62947940826416,2.2577321529388428,-0.5267243981361389
1728937943917664500,2.89966455078125,9.682151794433594,2.2864625453948975,-0.5099649429321289
1728937943927643600,2.9096435546875,9.821015357971191,2.1715409755706787,-0.5410895943641663
1728937943937653500,2.919653564453125,10.02452278137207,2.008735179901123,-0.5554547905921936
1728937943947663400,2.929663330078125,10.369287490844727,1.8914192914962769,-0.5913678407669067
1728937943957642500,2.939642578125,10.38844108581543,1.9752163887023926,-0.5267243981361389
1728937943967652400,2.94965234375,10.457873344421387,1.9608511924743652,-0.507570743560791
1728937943977631500,2.959631591796875,10.445901870727539,1.4939818382263184,-0.4908113479614258
1728937943987611000,2.96961083984375,10.271124839782715,2.2840683460235596,-0.507570743560791
1728937943997590000,2.979590087890625,9.938331604003906,2.140416383743286,-0.5291185975074768
1728937944007569400,2.9895693359375,10.002974510192871,1.8100165128707886,-0.5482721924781799
1728937944017548500,2.999548583984375,9.950302124023438,1.434126853942871,-0.5626373887062073
1728937944027527700,3.009527587890625,9.904812812805176,1.314416766166687,-0.5506663918495178
1728937944037507000,3.019507080078125,9.821015357971191,1.2880805730819702,-0.569819986820221
1728937944047516700,3.0295166015625,10.091560363769531,1.4101848602294922,-0.5363011956214905
1728937944057526500,3.039526611328125,10.69489860534668,1.1803414821624756,-0.7206547260284424
1728937944067536400,3.049536376953125,9.830592155456543,1.0558429956436157,-1.460463047027588
1728937944077515500,3.059515625,10.077195167541504,1.6639702320098877,-0.9911994934082031
1728937944087495000,3.069494873046875,10.87446403503418,1.723825216293335,-1.2641384601593018
1728937944097474000,3.07947412109375,10.15141487121582,1.4460978507995605,-1.53707754611969
1728937944107453400,3.089453369140625,9.916783332824707,1.113303780555725,-1.7166426181793213
1728937944117432600,3.0994326171875,10.074800491333008,0.6512228846549988,-1.7836803197860718
1728937944127442400,3.1094423828125,9.959878921508789,0.19153612852096558,-1.7741034030914307
1728937944137452000,3.1194521484375,9.907206535339355,0.009576806798577309,-1.7142484188079834
1728937944147431400,3.129431396484375,9.77791976928711,-0.05985504388809204,-1.6041151285171509
1728937944157441000,3.13944091796875,9.876082420349121,-0.1843535304069519,-1.4915876388549805
1728937944167451000,3.149450927734375,10.108319282531738,-0.0071826050989329815,-1.4700398445129395
1728937944177369000,3.159369140625,9.947908401489258,0.4165911078453064,-1.8267759084701538
1728937944187348200,3.16934814453125,9.840168952941895,0.42856210470199585,-2.252943754196167
1728937944197327600,3.17932763671875,9.950302124023438,0.10055647045373917,-2.492363929748535
1728937944207306800,3.189306640625,10.137049674987793,-0.48602294921875,-2.3942017555236816
1728937944217286100,3.1992861328125,10.374075889587402,-1.113303780555725,-2.013523578643799
1728937944227295700,3.209295654296875,10.347740173339844,-1.5179238319396973,-1.4269442558288574
1728937944237305600,3.2193056640625,10.251971244812012,-1.4389152526855469,-0.9241618514060974
1728937944247315500,3.2293154296875,10.072406768798828,-1.1348515748977661,-0.6655880808830261
1728937944257294600,3.239294677734375,10.002974510192871,-0.8355764150619507,-0.47884035110473633
1728937944267274000,3.24927392578125,9.825803756713867,-0.7733271718025208,-0.3256114423274994
1728937944277253000,3.259253173828125,10.201693534851074,-0.8044517636299133,-0.13168109953403473
1728937944287232300,3.269232177734375,10.180145263671875,-0.9145850539207458,-0.0454898327589035
1728937944297211600,3.279211669921875,10.230423927307129,-0.9169792532920837,0.33039984107017517
1728937944307129900,3.2891298828125,10.247182846069336,-0.751779317855835,0.5889736413955688
1728937944317139700,3.2991396484375,10.338163375854492,-0.629675030708313,0.7661445140838623
1728937944327118800,3.309118896484375,10.278307914733887,-0.8379706144332886,0.7781155705451965
1728937944337128700,3.319128662109375,10.189722061157227,-1.0869675874710083,0.7948749661445618
1728937944347107800,3.32910791015625,10.244789123535156,-1.2497732639312744,0.7565677165985107
1728937944357117700,3.33911767578125,10.062829971313477,-1.479616641998291,0.7829039692878723
1728937944367096800,3.349096923828125,9.603142738342285,-1.577778935432434,0.730231523513794
1728937944377106700,3.359106689453125,9.514557838439941,-1.5610195398330688,0.6967126727104187
1728937944387116300,3.3691162109375,9.339780807495117,-1.5083470344543457,0.5219359993934631
1728937944397126100,3.379126220703125,9.346963882446289,-1.4915876388549805,0.3016694188117981
1728937944407136000,3.389135986328125,9.603142738342285,-1.5729905366897583,0.16759411990642548
1728937944417115100,3.399115234375,9.840168952941895,-1.867477297782898,0.16998831927776337
1728937944427125000,3.409125,9.557653427124023,-2.4157495498657227,-0.009576806798577309
1728937944437104000,3.419104248046875,9.363722801208496,-2.8179752826690674,-0.08858546614646912
1728937944447114000,3.429114013671875,9.318233489990234,-2.8227639198303223,0.10773907601833344
1728937944457123800,3.439123779296875,9.08838939666748,-2.7533318996429443,0.26575639843940735
1728937944467133400,3.449133544921875,8.669404029846191,-2.7222073078155518,0.4405331015586853
1728937944477143300,3.459143310546875,8.485051155090332,-2.9328970909118652,0.6512228846549988
1728937944487153000,3.46915283203125,8.274360656738281,-3.4979286193847656,0.8379706144332886
1728937944497132300,3.47913232421875,8.248024940490723,-4.438849925994873,1.2952631711959839
1728937944507142100,3.48914208984375,8.65743350982666,-3.97916316986084,1.3646949529647827
1728937944517121300,3.499121337890625,8.571242332458496,-4.144362926483154,1.403002142906189
1728937944527131100,3.509131103515625,9.452308654785156,-2.6001031398773193,1.9393033981323242
1728937944537110300,3.5191103515625,9.162610054016113,-2.22660756111145,2.006340980529785
1728937944547120000,3.5291201171875,8.844181060791016,-3.0861260890960693,1.9512743949890137
1728937944557099300,3.539099365234375,8.60236644744873,-4.0078935623168945,1.1204863786697388
1728937944567109000,3.549109130859375,8.269572257995605,-4.639962673187256,0.4572925269603729
1728937944577088300,3.559088134765625,8.128314971923828,-4.671087741851807,-0.047884032130241394
1728937944587098000,3.56909814453125,8.252813339233398,-4.697423934936523,-0.1173158809542656
1728937944597077200,3.5790771484375,7.814674377441406,-4.876988887786865,-0.2106897532939911
1728937944607087000,3.589087158203125,7.951143741607666,-4.838681697845459,-0.5650315880775452
1728937944617097000,3.599096923828125,8.022970199584961,-4.953603267669678,-0.849941611289978
1728937944627106600,3.6091064453125,8.674192428588867,-5.128379821777344,-1.400607943534851
1728937944637086000,3.6190859375,8.585607528686523,-5.501875400543213,-1.6089035272598267
1728937944647065000,3.629065185546875,6.658275127410889,-5.700594425201416,-1.625662922859192
1728937944657044500,3.63904443359375,8.015787124633789,-5.851428985595703,-1.6496049165725708
1728937944667023600,3.649023681640625,9.069235801696777,-5.7341132164001465,-1.2832920551300049
1728937944676972300,3.65897216796875,7.872135162353516,-6.303933143615723,-1.5179238319396973
1728937944686982100,3.668982177734375,6.67982292175293,-7.017405033111572,-1.3742717504501343
1728937944696992000,3.678991943359375,6.629544734954834,-6.962338447570801,-1.278503656387329
1728937944707001600,3.689001708984375,6.840234279632568,-6.835445880889893,-1.3215993642807007
1728937944717011500,3.699011474609375,6.517016887664795,-6.730101108551025,-1.2066776752471924
1728937944727021300,3.709021240234375,4.960785865783691,-6.643909931182861,-1.1252747774124146
1728937944736970000,3.718969970703125,4.086902141571045,-6.555324077606201,-1.2641384601593018
1728937944746979600,3.7289794921875,4.261679172515869,-6.531382083892822,-1.625662922859192
1728937944756959000,3.738958984375,4.917690277099609,-6.861782073974609,-1.4652514457702637
1728937944766938000,3.748938232421875,5.1595048904418945,-7.326257228851318,-1.5155296325683594
1728937944776917500,3.75891748046875,5.559336185455322,-7.687781810760498,-1.3527239561080933
1728937944786896600,3.768896728515625,5.966350555419922,-8.152256965637207,-1.0582371950149536
1728937944796876000,3.7788759765625,6.167463779449463,-8.142680168151855,-0.6224924325942993
1728937944806855200,3.788855224609375,7.9631147384643555,-8.348581314086914,-0.19153612852096558
1728937944816865000,3.798864990234375,4.817133903503418,-7.275979042053223,-0.07661445438861847
1728937944826844200,3.80884423828125,5.674258232116699,-6.502651691436768,-0.1843535304069519
1728937944836823600,3.818823486328125,6.414066314697266,-6.50025749206543,-0.3519476354122162
1728937944846833200,3.828833251953125,6.9695210456848145,-7.175422668457031,-0.2513911724090576
1728937944856843000,3.838843017578125,6.936002254486084,-7.85537576675415,-0.2298433631658554
1728937944866852600,3.8488525390625,6.648698329925537,-8.65982723236084,-0.15322890877723694
1728937944876832000,3.85883203125,6.244078159332275,-8.9064302444458,-0.07661445438861847
1728937944886841900,3.868841796875,6.028599739074707,-8.542511940002441,0.08858546614646912
1728937944896821000,3.878821044921875,6.203376770019531,-7.999027729034424,0.2825157940387726
1728937944906800000,3.888800048828125,6.234501361846924,-6.643909931182861,-0.031124621629714966
1728937944916779500,3.898779541015625,7.070077419281006,-7.280767440795898,0.20111294090747833
1728937944926758700,3.908758544921875,6.01423454284668,-7.94635534286499,0.6631938815116882
1728937944936738000,3.918738037109375,5.4875102043151855,-7.450755596160889,0.7086837291717529
1728937944946717200,3.92871728515625,4.778826713562012,-8.176198959350586,0.5554547905921936
1728937944956727000,3.93872705078125,4.575319290161133,-8.556877136230469,0.5315127968788147
1728937944966736600,3.948736572265625,4.821922302246094,-8.698134422302246,0.7086837291717529
1728937944976716000,3.958716064453125,4.225766181945801,-8.520963668823242,1.036689281463623
1728937944986726000,3.968725830078125,3.998316764831543,-8.166622161865234,1.237802267074585
1728937944996705000,3.978705078125,4.180276393890381,-7.996633529663086,1.1085153818130493
1728937945006684200,3.98868408203125,4.197035789489746,-7.781155586242676,0.9528923034667969
1728937945016663600,3.99866357421875,4.553771495819092,-7.929595947265625,0.5889736413955688
1728937945026673400,4.00867333984375,4.584896087646484,-8.291120529174805,0.26096799969673157
1728937945036622000,4.0186220703125,4.912901878356934,-8.439560890197754,0.17238251864910126
1728937945046631700,4.028631591796875,5.054159641265869,-8.195352554321289,0.42377370595932007
1728937945056611000,4.038611083984375,5.178658485412598,-8.106766700744629,0.6344634294509888
1728937945066620700,4.04862060546875,5.106832027435303,-8.271966934204102,1.0342950820922852
1728937945076600000,4.05860009765625,5.125985622406006,-8.24084186553955,1.403002142906189
1728937945086610000,4.06860986328125,4.716577529907227,-7.960720539093018,1.4844050407409668
1728937945096589000,4.078589111328125,4.37420654296875,-7.931990146636963,1.403002142906189
1728937945106599000,4.088598876953125,4.129997730255127,-7.922413349151611,1.3000515699386597
1728937945116578000,4.098578125,4.031835556030273,-8.157045364379883,1.05105459690094
1728937945126588000,4.108587890625,4.963180065155029,-9.569623947143555,0.395043283700943
1728937945136597500,4.118597412109375,5.449203014373779,-10.469843864440918,-0.06224924325942993
1728937945146577000,4.128576904296875,5.307945251464844,-10.766724586486816,-0.3208230137825012
1728937945156586500,4.13858642578125,5.219359874725342,-10.778696060180664,-0.545877993106842
1728937945166566000,4.14856591796875,4.790797710418701,-10.529699325561523,-0.31364041566848755
1728937945176575700,4.15857568359375,4.402936935424805,-10.307038307189941,0.05267243832349777
1728937945186555000,4.168554931640625,4.151545524597168,-9.739612579345703,0.8020575642585754
1728937945196534000,4.178533935546875,4.228160381317139,-9.289502143859863,1.2856862545013428
1728937945206544000,4.1885439453125,4.256890773773193,-9.387664794921875,1.4987702369689941
1728937945216553700,4.1985537109375,4.017470359802246,-9.490615844726562,1.6065093278884888
1728937945226563300,4.208563232421875,3.6727054119110107,-9.524134635925293,1.702277421951294
1728937945236542700,4.218542724609375,3.3925838470458984,-9.6989107131958,1.5394717454910278
1728937945246552300,4.22855224609375,3.1747114658355713,-9.763554573059082,1.4077905416488647
1728937945256531700,4.23853173828125,3.3016040325164795,-9.62947940826416,1.2641384601593018
1728937945266541600,4.24854150390625,3.4189200401306152,-9.500192642211914,1.173158884048462
1728937945276520700,4.258520751953125,3.359065055847168,-9.610325813293457,0.9888052940368652
1728937945286499800,4.268499755859375,3.428496837615967,-9.440337181091309,1.0582371950149536
1728937945296509700,4.278509765625,3.6607344150543213,-8.999804496765137,1.4437036514282227
1728937945306488800,4.28848876953125,4.156333923339844,-8.722076416015625,1.6304513216018677
1728937945316498700,4.298498779296875,4.517858505249023,-8.59997272491455,1.6184803247451782
1728937945326478000,4.30847802734375,4.532223701477051,-8.650250434875488,1.4844050407409668
1728937945336487700,4.31848779296875,4.098873138427734,-8.825027465820312,1.414973258972168
1728937945346467000,4.328467041015625,3.864241600036621,-8.808267593383789,1.5729905366897583
1728937945356446200,4.3384462890625,4.3622355461120605,-7.924807548522949,1.6759412288665771
1728937945366456000,4.3484560546875,5.377377033233643,-5.808333396911621,2.1140801906585693
1728937945376435200,4.358435302734375,4.675876140594482,-6.651092529296875,1.3838485479354858
1728937945386445000,4.368445068359375,4.220977783203125,-7.450755596160889,0.8379706144332886
1728937945396454700,4.37845458984375,4.651933670043945,-6.200982570648193,0.5291185975074768
1728937945406464500,4.388464599609375,4.932055473327637,-4.733336925506592,0.44532153010368347
1728937945416444000,4.39844384765625,5.137956619262695,-3.4620156288146973,0.06464344263076782
1728937945426453500,4.40845361328125,5.863399982452393,-2.4420857429504395,-0.6272808313369751
1728937945436463400,4.41846337890625,5.7772088050842285,-2.784456491470337,-0.8906430602073669
1728937945446473200,4.42847314453125,3.8163576126098633,-4.405331134796143,-0.5195417404174805
1728937945456482800,4.43848291015625,1.5897499322891235,-6.368576526641846,-0.12689268589019775
1728937945466492700,4.44849267578125,-1.5155296325683594,-9.193734169006348,-0.44771572947502136
1728937945476471800,4.458471923828125,-1.3120225667953491,-12.389993667602539,-0.181959331035614
1728937945486451200,4.468451171875,1.5825673341751099,-13.924676895141602,1.139639973640442
1728937945496430300,4.478430419921875,4.529829502105713,-14.669273376464844,3.576937437057495
1728937945506409700,4.48840966796875,6.5050458908081055,-15.083470344543457,5.432443618774414
1728937945516388900,4.498388916015625,7.321468830108643,-16.089035034179688,5.726930618286133
1728937945526368000,4.508367919921875,7.73087739944458,-15.887922286987305,4.446032524108887
1728937945536347400,4.518347412109375,8.245630264282227,-14.678850173950195,2.3271639347076416
1728937945546357200,4.528357177734375,8.283937454223633,-12.471396446228027,1.4197616577148438
1728937945556336400,4.53833642578125,7.927201747894287,-10.647014617919922,1.3335703611373901
1728937945566346200,4.54834619140625,7.3454108238220215,-9.370905876159668,2.0446481704711914
1728937945576325400,4.558325439453125,6.172252178192139,-8.221688270568848,2.82515811920166
1728937945586304500,4.568304443359375,5.073313236236572,-7.548917770385742,3.2585084438323975
1728937945596284000,4.578283935546875,4.400542736053467,-7.481880187988281,3.507505416870117
1728937945606263000,4.588262939453125,4.1395745277404785,-7.757213592529297,3.378218650817871
1728937945616242400,4.598242431640625,4.285621166229248,-8.219294548034668,2.9927520751953125
1728937945626252000,4.608251953125,4.6255974769592285,-8.516175270080566,2.205059766769409
1728937945636292400,4.618292236328125,5.5114521980285645,-8.068459510803223,1.800439715385437
1728937945646302200,4.62830224609375,5.779603004455566,-8.315062522888184,2.1045033931732178
1728937945656281300,4.63828125,5.9304375648498535,-7.922413349151611,2.190694570541382
1728937945666291200,4.648291259765625,5.616796970367432,-6.399701118469238,2.492363929748535
1728937945676270300,4.658270263671875,5.058948040008545,-4.410119533538818,2.5091233253479004
1728937945686249700,4.668249755859375,4.8722004890441895,-3.378218650817871,2.0446481704711914
1728937945696228900,4.678228759765625,4.4939165115356445,-2.911349296569824,1.7549498081207275
1728937945706238700,4.68823876953125,4.173093795776367,-2.564189910888672,1.53707754611969
1728937945716279000,4.698279052734375,3.8163576126098633,-2.5761611461639404,1.3934253454208374
1728937945726288600,4.70828857421875,3.7493197917938232,-2.33913516998291,1.2689268589019775
1728937945736268000,4.71826806640625,3.7828385829925537,-2.2888567447662354,1.0989385843276978
1728937945746247200,4.7282470703125,3.73016619682312,-2.6240451335906982,0.7972691655158997
1728937945756226600,4.7382265625,3.706224203109741,-3.0095114707946777,0.5985504388809204
1728937945766205700,4.748205810546875,3.1747114658355713,-3.071760892868042,0.6727706789970398
1728937945776185000,4.75818505859375,3.1675288677215576,-4.393360137939453,0.6392518281936646
1728937945786194700,4.768194580078125,3.1483752727508545,-5.207388877868652,0.5841852426528931
1728937945796204500,4.77820458984375,3.0119056701660156,-5.7987565994262695,0.5099649429321289
1728937945806214400,4.78821435546875,2.4588451385498047,-5.949591159820557,0.5937620401382446
1728937945816193500,4.798193603515625,1.5322890281677246,-3.6727054119110107,0.8020575642585754
1728937945826172700,4.808172607421875,0.8523358106613159,-2.449268341064453,0.8523358106613159
1728937945836152000,4.818152099609375,2.300827741622925,-3.6583402156829834,0.7038952708244324
1728937945846162000,4.828161865234375,3.864241600036621,-7.2113356590271,2.0829553604125977
1728937945856171500,4.838171630859375,4.364629745483398,-42.564117431640625,16.4816837310791
1728937945866181400,4.848181396484375,10.81700325012207,-21.5214786529541,1.0558429956436157
1728937945876160500,4.858160400390625,16.9581298828125,-21.607669830322266,-2.873042106628418
1728937945886140000,4.868139892578125,18.057069778442383,-17.721881866455078,-5.815515995025635
1728937945896119000,4.878119140625,13.500903129577637,-10.869675636291504,-6.916848659515381
1728937945906129000,4.88812890625,9.636661529541016,-7.450755596160889,-5.985504150390625
1728937945916108000,4.89810791015625,3.00711727142334,-5.623979568481445,-3.665522813796997
1728937945926087400,4.90808740234375,0.23702596127986908,-5.044582843780518,-2.1571757793426514
1728937945936066600,4.918066650390625,-1.1252747774124146,-6.36378812789917,-0.768538773059845
1728937945946076400,4.928076416015625,-1.213860273361206,-7.979874134063721,-0.12928688526153564
1728937945956086000,4.9380859375,0.3423708379268646,-9.241618156433105,-0.22505496442317963
1728937945966096000,4.948095947265625,2.7700912952423096,-9.727641105651855,-0.9385270476341248
1728937945976075300,4.9580751953125,4.845864295959473,-10.235212326049805,-1.7884687185287476
1728937945986054400,4.968054443359375,6.18182897567749,-10.893617630004883,-2.671929121017456
1728937945996033500,4.978033447265625,6.4164605140686035,-11.492168426513672,-3.3279404640197754
1728937946006043400,4.98804345703125,5.674258232116699,-11.693281173706055,-3.6798880100250244
1728937946016053200,4.99805322265625,5.169081687927246,-10.575188636779785,-2.82515811920166
1728937946026062800,5.008062744140625,4.381389141082764,-10.11550235748291,-1.556231141090393
1728937946036042200,5.018042236328125,3.907337188720703,-10.103530883789062,-0.9696516990661621
1728937946046021400,5.028021484375,4.256890773773193,-10.211270332336426,-0.6631938815116882
1728937946056000800,5.038000732421875,4.934449672698975,-10.223240852355957,-0.8930372595787048
1728937946066010400,5.04801025390625,4.8267107009887695,-10.357316970825195,-1.3431471586227417
1728937946076050700,5.05805078125,4.424484729766846,-10.20648193359375,-1.482010841369629
1728937946086060500,5.068060546875,4.005499362945557,-10.44350814819336,-1.0749965906143188
1728937946096039700,5.078039794921875,2.6455929279327393,-10.821791648864746,-0.8786720037460327
1728937946106019000,5.08801904296875,1.4628572463989258,-10.3549222946167,-0.14604631066322327
1728937946115998200,5.097998291015625,1.7980455160140991,-9.72285270690918,0.7230489253997803
1728937946126008000,5.108008056640625,2.6886885166168213,-8.154650688171387,0.9888052940368652
1728937946136017700,5.118017578125,2.892195701599121,-6.6391215324401855,2.075772762298584
1728937946146027500,5.128027587890625,2.896984100341797,-7.5201873779296875,2.942473888397217
1728937946156006700,5.138006591796875,4.311957359313965,-9.418789863586426,1.8794482946395874
1728937946165986000,5.147986083984375,3.9217023849487305,-10.38844108581543,-0.031124621629714966
1728937946175965200,5.157965087890625,3.4955344200134277,-10.702081680297852,-0.9576807022094727
1728937946185975000,5.16797509765625,3.971980571746826,-10.326191902160645,-1.4101848602294922
1728937946195985000,5.17798486328125,4.309563159942627,-9.746794700622559,-1.766920804977417
1728937946205964000,5.187964111328125,4.692635536193848,-9.433155059814453,-1.4724340438842773
1728937946215943400,5.197943359375,5.161899089813232,-8.860940933227539,-0.43095630407333374
1728937946225953000,5.207953125,5.5976433753967285,-8.355764389038086,-0.14844051003456116
1728937946235993300,5.217993408203125,5.355829238891602,-8.465897560119629,-0.40222588181495667
1728937946246003200,5.228003173828125,4.90571928024292,-8.307879447937012,-0.5650315880775452
1728937946255982300,5.237982421875,4.489128112792969,-8.054094314575195,-0.7733271718025208
1728937946265961700,5.247961669921875,4.446032524108887,-8.259995460510254,-1.1994950771331787
1728937946275940900,5.25794091796875,4.537012100219727,-8.485051155090332,-1.6663644313812256
1728937946285920000,5.267919921875,4.764461517333984,-8.487444877624512,-1.6974890232086182
1728937946295899400,5.2778994140625,5.035006046295166,-8.166622161865234,-1.2473790645599365
1728937946305909200,5.2879091796875,5.39174222946167,-8.769960403442383,-0.6488286852836609
1728937946315918800,5.2979189453125,5.719748020172119,-8.832210540771484,-0.7709329724311829
1728937946325928700,5.3079287109375,5.808333396911621,-7.953537940979004,-0.9002198576927185
1728937946335907800,5.317907958984375,6.081272125244141,-7.575253963470459,-0.586579442024231
1728937946345887200,5.32788720703125,6.169857978820801,-7.778761386871338,-0.16759411990642548
1728937946355866400,5.337866455078125,6.016628742218018,-8.389283180236816,-0.22744916379451752
1728937946365845800,5.347845703125,5.839457988739014,-8.959102630615234,-0.8140285611152649
1728937946375825000,5.357824951171875,5.485116004943848,-9.026140213012695,-1.4628572463989258
1728937946385804000,5.367803955078125,5.748478412628174,-8.803479194641113,-1.8722656965255737
1728937946395783400,5.377783447265625,6.016628742218018,-8.944737434387207,-2.1954829692840576
1728937946405762600,5.387762451171875,6.490680694580078,-9.181763648986816,-2.382230758666992
1728937946415742000,5.397741943359375,6.696582317352295,-9.138668060302734,-2.298433542251587
1728937946425751600,5.40775146484375,6.603208065032959,-8.983044624328613,-2.0805611610412598
1728937946435761400,5.417761474609375,6.550535678863525,-8.803479194641113,-1.8602946996688843
1728937946445771300,5.427771240234375,6.50025749206543,-8.698134422302246,-1.7741034030914307
1728937946455780900,5.43778076171875,6.461950302124023,-8.616731643676758,-1.7262194156646729
1728937946465790700,5.447790771484375,6.507440090179443,-8.473079681396484,-1.7884687185287476
1728937946475769900,5.457769775390625,6.423643112182617,-8.271966934204102,-1.7357962131500244
1728937946485779700,5.46777978515625,6.186617374420166,-8.161833763122559,-1.7477672100067139
1728937946495759000,5.477759033203125,5.925649166107178,-8.070854187011719,-1.7070658206939697
1728937946505738200,5.48773828125,5.765237808227539,-7.929595947265625,-1.680729627609253
1728937946515717400,5.49771728515625,5.729324817657471,-7.750030994415283,-1.721431016921997
1728937946525696800,5.50769677734375,5.595249176025391,-7.671022415161133,-1.6328455209732056
1728937946535676000,5.517676025390625,5.367800235748291,-7.55131196975708,-1.534683346748352
1728937946545685800,5.527685791015625,5.2049946784973145,-7.441178798675537,-1.6280571222305298
1728937946555726000,5.53772607421875,4.927267074584961,-7.33583402633667,-1.4963760375976562
1728937946565735700,5.547735595703125,4.584896087646484,-7.19936466217041,-1.280897855758667
1728937946575715000,5.557715087890625,4.165910720825195,-7.273584842681885,-0.7541735172271729
1728937946585725000,5.567724853515625,2.913743495941162,-7.929595947265625,-1.1683704853057861
1728937946595704000,5.5777041015625,1.3982137441635132,-8.463502883911133,-1.3718775510787964
1728937946605683200,5.58768310546875,0.48602294921875,-7.903259754180908,-1.7956513166427612
1728937946615662600,5.59766259765625,1.0558429956436157,-8.633491516113281,-1.8124107122421265
1728937946625641700,5.607641845703125,1.9369091987609863,-8.576030731201172,-1.900996208190918
1728937946635621000,5.61762109375,2.5498247146606445,-8.271966934204102,-2.0374655723571777
1728937946645600300,5.627600341796875,2.164358377456665,-8.061277389526367,-1.7812861204147339
1728937946655579600,5.63757958984375,3.4548330307006836,-9.23443603515625,-2.3367409706115723
1728937946665589200,5.64758935546875,5.322310447692871,-9.390059471130371,-1.9943699836730957
1728937946675599000,5.65759912109375,3.8953661918640137,-9.622296333312988,-1.434126853942871
1728937946685609000,5.66760888671875,3.490746021270752,-9.701305389404297,-0.9744400978088379
1728937946695588000,5.677588134765625,4.017470359802246,-9.105149269104004,-0.5578489899635315
1728937946705598000,5.687597900390625,4.99669885635376,-8.813055992126465,-0.3256114423274994
1728937946715577000,5.6975771484375,4.886565685272217,-8.070854187011719,-0.21308395266532898
1728937946725556200,5.70755615234375,4.4939165115356445,-7.826645374298096,-0.5650315880775452
1728937946735535600,5.71753564453125,5.078101634979248,-8.200140953063965,-1.235408067703247
1728937946745545500,5.72754541015625,5.2049946784973145,-8.092401504516602,-1.6304513216018677
1728937946755555000,5.73755517578125,3.6750996112823486,-7.481880187988281,-1.4867992401123047
1728937946765565000,5.74756494140625,3.0597896575927734,-8.068459510803223,-2.054224967956543
1728937946775544000,5.7575439453125,4.168305397033691,-8.293514251708984,-2.33913516998291
1728937946785523500,5.7675234375,3.5649664402008057,-7.60637903213501,-1.702277421951294
1728937946795502600,5.777502685546875,3.5170822143554688,-8.118738174438477,-1.3623007535934448
1728937946805482000,5.78748193359375,3.754108190536499,-8.329427719116211,-1.434126853942871
1728937946815461000,5.797461181640625,4.101267337799072,-8.255207061767578,-1.7764976024627686
1728937946825471000,5.807470947265625,4.592078685760498,-7.876923561096191,-1.4221558570861816
1728937946835480600,5.81748046875,4.821922302246094,-7.706935405731201,-0.9744400978088379
1728937946845460000,5.8274599609375,5.056553840637207,-7.793126583099365,-0.9217676520347595
1728937946855469600,5.837469482421875,5.365406036376953,-8.054094314575195,-1.2210428714752197
1728937946865479400,5.8474794921875,5.568912982940674,-7.95832633972168,-1.5969325304031372
1728937946875458600,5.85745849609375,5.851428985595703,-8.185775756835938,-1.9345149993896484
1728937946885438000,5.86743798828125,6.3973069190979,-8.470685958862305,-2.1332337856292725
1728937946895417000,5.8774169921875,6.811503887176514,-8.820239067077637,-2.1571757793426514
1728937946905396500,5.887396484375,7.01979923248291,-9.069235801696777,-2.0398597717285156
1728937946915375600,5.897375732421875,6.670246124267578,-9.591172218322754,-1.9105730056762695
1728937946925385500,5.907385498046875,6.452373504638672,-10.041281700134277,-1.7094600200653076
1728937946935395300,5.917395263671875,5.714959621429443,-10.735600471496582,-1.8722656965255737
1728937946945405000,5.927405029296875,4.750096321105957,-11.291055679321289,-2.0925323963165283
1728937946955414800,5.937414794921875,3.6104562282562256,-11.712434768676758,-2.2673089504241943
1728937946965394000,5.947393798828125,2.4827871322631836,-11.60948371887207,-2.229001760482788
1728937946975373300,5.957373291015625,2.027888774871826,-11.504138946533203,-2.0039467811584473
1728937946985383000,5.9673828125,1.2880805730819702,-11.346121788024902,-1.8914192914962769
1728937946995423200,5.97742333984375,1.4317326545715332,-11.396400451660156,-1.7908629179000854
1728937947005433000,5.98743310546875,1.7381904125213623,-11.305420875549316,-1.6639702320098877
1728937947015412200,5.997412109375,2.341529369354248,-11.224017143249512,-1.4101848602294922
1728937947025422000,6.007422119140625,3.004723072052002,-11.173739433288574,-0.9026140570640564
1728937947035401200,6.017401123046875,3.5266590118408203,-11.35809326171875,-0.48602294921875
1728937947045380600,6.027380615234375,3.9408559799194336,-11.279084205627441,-0.13407529890537262
1728937947055359700,6.03735986328125,3.7708675861358643,-10.699687004089355,0.4141969084739685
1728937947065339100,6.047339111328125,3.6798880100250244,-12.224793434143066,0.5027823448181152
1728937947075318300,6.057318359375,3.2345664501190186,-12.51209831237793,-1.115697979927063
1728937947085328100,6.067328125,2.2146365642547607,-10.584765434265137,-0.751779317855835
1728937947095368400,6.077368408203125,2.209848165512085,-9.68933391571045,0.0071826050989329815
1728937947105378000,6.0873779296875,2.279279947280884,-9.785101890563965,0.16759411990642548
1728937947115357400,6.097357421875,2.360682964324951,-10.268731117248535,0.2585737705230713
1728937947125367000,6.107366943359375,2.1763293743133545,-10.54406452178955,0.5793967843055725
1728937947135346400,6.117346435546875,2.1284453868865967,-10.103530883789062,0.7541735172271729
1728937947145325600,6.12732568359375,2.3726539611816406,-9.378087997436523,0.8690952062606812
1728937947155305000,6.137304931640625,2.655169725418091,-9.320627212524414,1.091755986213684
1728937947165314600,6.147314453125,2.715024709701538,-9.294290542602539,1.7836803197860718
1728937947175324400,6.157324462890625,2.8634653091430664,-9.196128845214844,2.298433542251587
1728937947185334300,6.167334228515625,3.1938650608062744,-9.560047149658203,2.4899697303771973
1728937947195344000,6.17734375,3.2609026432037354,-9.157821655273438,2.365471363067627
1728937947205323300,6.1873232421875,4.378994941711426,-8.061277389526367,1.9943699836730957
1728937947215332900,6.197332763671875,4.003105163574219,-7.29034423828125,1.3886369466781616
1728937947225342700,6.2073427734375,3.6152446269989014,-7.204153060913086,0.9648633003234863
1728937947235321900,6.21732177734375,3.576937437057495,-7.299921035766602,1.070208191871643
1728937947245301200,6.22730126953125,3.2776620388031006,-7.55131196975708,1.158793568611145
1728937947255280400,6.2372802734375,2.849100112915039,-7.513004779815674,1.1468225717544556
1728937947265259800,6.247259765625,2.7054479122161865,-7.5968017578125,1.2186486721038818
1728937947275239000,6.257239013671875,2.8107926845550537,-7.572859764099121,1.292868971824646
1728937947285218300,6.26721826171875,3.1747114658355713,-7.493851184844971,1.4748282432556152
1728937947295197400,6.277197509765625,3.4308910369873047,-7.457938194274902,1.764526605606079
1728937947305176600,6.287176513671875,3.737348794937134,-7.55131196975708,1.9177556037902832
1728937947315156000,6.297156005859375,4.338293552398682,-7.91283655166626,2.051830768585205
1728937947325135000,6.307135009765625,4.5394062995910645,-8.2312650680542,2.1787235736846924
1728937947335114500,6.317114501953125,4.345476150512695,-8.398859977722168,2.4827871322631836
1728937947345124000,6.3271240234375,4.079719543457031,-8.607154846191406,2.736572504043579
1728937947355103500,6.337103515625,3.845088005065918,-8.741230010986328,2.96162748336792
1728937947365113300,6.34711328125,3.5649664402008057,-8.949525833129883,3.201047658920288
1728937947375092500,6.357092529296875,3.162740468978882,-9.102754592895508,3.4308910369873047
1728937947385071600,6.367071533203125,2.7246015071868896,-9.165003776550293,3.5625722408294678
1728937947395051000,6.377051025390625,2.4851813316345215,-9.260771751403809,3.603273630142212
1728937947405030100,6.387030029296875,2.38462495803833,-9.39245319366455,3.550601005554199
1728937947415009500,6.397009521484375,2.38462495803833,-9.344569206237793,3.4763808250427246
1728937947425019100,6.40701904296875,2.231395959854126,-9.334992408752441,3.600879430770874
1728937947434998500,6.41699853515625,2.070984363555908,-9.186552047729492,3.7038300037384033
1728937947445008100,6.427008056640625,1.900996208190918,-9.255983352661133,3.7277719974517822
1728937947454987500,6.436987548828125,1.6855180263519287,-9.334992408752441,3.928884983062744
1728937947464997400,6.446997314453125,1.5538369417190552,-9.301473617553711,4.106055736541748
1728937947474976500,6.4569765625,1.4077905416488647,-9.27034854888916,4.242525577545166
1728937947484986400,6.466986328125,1.2258312702178955,-9.210494041442871,4.355052947998047
1728937947494965500,6.476965576171875,1.2545616626739502,-9.29189682006836,4.503493309020996
1728937947504975400,6.486975341796875,1.4700398445129395,-9.445125579833984,4.709394931793213
1728937947514954500,6.49695458984375,1.7812861204147339,-9.502586364746094,4.900930881500244
1728937947524964400,6.50696435546875,2.3080103397369385,-9.521739959716797,5.049371242523193
1728937947534943500,6.516943603515625,2.920926094055176,-9.397241592407227,5.118803024291992
1728937947544923000,6.5269228515625,3.4811692237854004,-9.078812599182129,5.049371242523193
1728937947554902000,6.536902099609375,3.794809579849243,-8.966285705566406,4.81473970413208
1728937947564911900,6.546911865234375,4.094084739685059,-9.100360870361328,4.000710964202881
1728937947574891000,6.55689111328125,4.0964789390563965,-8.585607528686523,3.469198226928711
1728937947584900900,6.56690087890625,2.96162748336792,-7.575253963470459,3.471592426300049
1728937947594880000,6.5768798828125,2.1978771686553955,-6.878541469573975,3.5865142345428467
1728937947604859400,6.586859375,2.6839001178741455,-7.352593421936035,2.9281086921691895
1728937947614869000,6.596868896484375,3.8091750144958496,-7.036558628082275,2.9089550971984863
1728937947624878800,6.60687890625,4.541800498962402,-7.230489253997803,3.0597896575927734
1728937947634858000,6.61685791015625,4.807557106018066,-7.465120792388916,3.205836057662964
1728937947644837400,6.62683740234375,4.754884719848633,-7.673416614532471,3.179499864578247
1728937947654847200,6.63684716796875,4.685452938079834,-7.7763671875,2.9520506858825684
1728937947664826400,6.646826416015625,4.639962673187256,-8.04930591583252,2.449268341064453
1728937947674805500,6.656805419921875,4.484339714050293,-8.334216117858887,1.9776105880737305
1728937947684815400,6.6668154296875,3.8067808151245117,-8.415618896484375,1.9608511924743652
1728937947694794800,6.676794677734375,2.691082715988159,-8.202534675598145,2.63362193107605
1728937947704804400,6.686804443359375,1.9393033981323242,-7.4986395835876465,3.713406801223755
1728937947714783700,6.69678369140625,1.6496049165725708,-6.833051681518555,4.005499362945557
1728937947724793300,6.70679345703125,1.2713210582733154,-6.811503887176514,4.034229755401611
1728937947734772700,6.716772705078125,2.1140801906585693,-7.536946773529053,3.995922565460205
1728937947744782300,6.7267822265625,2.2385785579681396,-8.556877136230469,3.5027170181274414
1728937947754761700,6.73676171875,2.5761611461639404,-9.119514465332031,3.0550012588500977
1728937947764771300,6.746771240234375,2.7437551021575928,-9.373299598693848,2.942473888397217
1728937947774781200,6.75678125,2.9328970909118652,-9.035717010498047,3.3662476539611816
1728937947784760300,6.76676025390625,2.760514497756958,-8.549694061279297,3.883395195007324
1728937947794770200,6.776770263671875,2.5067291259765625,-8.583212852478027,4.496310710906982
1728937947804749600,6.78674951171875,2.3582887649536133,-8.614337921142578,4.730942726135254
1728937947814759200,6.79675927734375,2.564189910888672,-8.377311706542969,4.738125324249268
1728937947824738600,6.806738525390625,3.1316158771514893,-8.892065048217773,4.565742492675781
1728937947834717700,6.8167177734375,3.646369218826294,-9.258378028869629,4.546588897705078
1728937947844727600,6.8267275390625,4.333505153656006,-8.920795440673828,4.738125324249268
1728937947854737200,6.836737060546875,4.807557106018066,-8.808267593383789,4.8267107009887695
1728937947864716500,6.846716552734375,5.453991413116455,-8.269572257995605,4.668693542480469
1728937947874726100,6.85672607421875,5.916072368621826,-8.530540466308594,4.496310710906982
1728937947884736000,6.866736083984375,6.342240333557129,-8.635885238647461,4.525041103363037
1728937947894715400,6.87671533203125,6.897695064544678,-8.528146743774414,4.398148536682129
1728937947904694500,6.886694580078125,7.376535415649414,-8.681375503540039,4.2329487800598145
1728937947914673700,6.896673583984375,7.836222171783447,-8.860940933227539,3.928884983062744
1728937947924653000,6.906653076171875,8.722076416015625,-10.053253173828125,2.983175277709961
1728937947934632200,6.916632080078125,8.149862289428711,-10.436325073242188,2.6886885166168213
1728937947944611600,6.926611572265625,6.6630635261535645,-10.474632263183594,2.82515811920166
1728937947954590700,6.9365908203125,5.57370138168335,-10.244789123535156,3.339911460876465
1728937947964600600,6.9466005859375,4.7836151123046875,-10.062829971313477,3.801992416381836
1728937947974579700,6.956579833984375,4.280832767486572,-10.089165687561035,4.228160381317139
1728937947984589600,6.966589599609375,4.015076160430908,-10.02452278137207,4.627991676330566
1728937947994568700,6.976568603515625,4.0294413566589355,-9.804255485534668,4.807557106018066
1728937948004548000,6.986548095703125,4.017470359802246,-9.813833236694336,4.817133903503418
1728937948014557700,6.9965576171875,3.6391866207122803,-9.639056205749512,4.745307922363281
1728937948024537000,7.006537109375,3.6535518169403076,-9.864110946655273,4.335899353027344
1728937948034516200,7.01651611328125,3.56017804145813,-9.852140426635742,3.8786067962646484
1728937948044526000,7.026526123046875,3.469198226928711,-9.787496566772461,3.4524388313293457
1728937948054536000,7.036535888671875,3.294421434402466,-9.641449928283691,3.205836057662964
1728937948064545500,7.046545654296875,3.3710360527038574,-9.404424667358398,3.1459810733795166
1728937948074555400,7.056555419921875,3.754108190536499,-9.105149269104004,3.205836057662964
1728937948084565200,7.066565185546875,4.0749311447143555,-8.93037223815918,3.251325845718384
1728937948094544400,7.07654443359375,4.299986362457275,-8.798690795898438,3.339911460876465
1728937948104554200,7.08655419921875,4.477157115936279,-8.537723541259766,3.4141316413879395
1728937948114533400,7.096533447265625,4.644751071929932,-8.322244644165039,3.44765043258667
1728937948124512800,7.1065126953125,4.81473970413208,-8.020575523376465,3.552995204925537
1728937948134492000,7.116491943359375,4.967968463897705,-7.687781810760498,3.6535518169403076
1728937948144471000,7.126470947265625,5.027823448181152,-7.544129371643066,3.7828385829925537
1728937948154450400,7.136450439453125,5.398924827575684,-6.907271862030029,3.885789394378662
1728937948164429600,7.1464296875,5.027823448181152,-6.864176273345947,3.9193081855773926
1728937948174409000,7.156408935546875,4.869806289672852,-7.419631004333496,3.778050184249878
1728937948184388000,7.16638818359375,4.874594688415527,-7.465120792388916,3.60566782951355
1728937948194367500,7.176367431640625,4.649539470672607,-7.879317760467529,3.3518824577331543
1728937948204377000,7.186377197265625,4.577713489532471,-7.55131196975708,3.5051112174987793
1728937948214356500,7.1963564453125,4.185064792633057,-7.084442615509033,3.579331636428833
1728937948224335600,7.206335693359375,3.49314022064209,-8.315062522888184,3.6176388263702393
1728937948234315000,7.21631494140625,3.1914708614349365,-7.556100368499756,3.6559460163116455
1728937948244324600,7.22632470703125,3.3279404640197754,-7.469909191131592,3.4165258407592773
1728937948254304000,7.236303955078125,2.82515811920166,-7.893682956695557,3.485957622528076
1728937948264313600,7.246313720703125,1.9943699836730957,-8.604761123657227,3.536235809326172
1728937948274323500,7.256323486328125,1.534683346748352,-8.951920509338379,3.756502389907837
1728937948284333300,7.266333251953125,1.4173674583435059,-9.059659004211426,3.801992416381836
1728937948294312400,7.2763125,1.9153614044189453,-9.502586364746094,3.9193081855773926
1728937948304291600,7.28629150390625,1.9704279899597168,-9.35893440246582,4.252102375030518
1728937948314271000,7.29627099609375,1.8148049116134644,-9.35654067993164,4.51067590713501
1728937948324280800,7.30628076171875,1.721431016921997,-9.117119789123535,4.800374507904053
1728937948334260000,7.316260009765625,1.9967641830444336,-8.880094528198242,4.975151062011719
1728937948344269800,7.326269775390625,1.381454348564148,-9.368511199951172,5.1116204261779785
1728937948354249000,7.3362490234375,0.629675030708313,-10.074800491333008,5.276820659637451
1728937948364258800,7.3462587890625,-0.45010992884635925,-10.072406768798828,5.434837818145752
1728937948374238000,7.356238037109375,-1.0247182846069336,-9.964667320251465,5.540182590484619
1728937948384217300,7.36621728515625,-0.2753331959247589,-9.763554573059082,5.317522048950195
1728937948394196500,7.376196533203125,0.8044517636299133,-9.17936897277832,4.8482584953308105
1728937948404206300,7.386206298828125,1.556231141090393,-8.29590892791748,4.527435302734375
1728937948414185500,7.396185546875,2.564189910888672,-7.481880187988281,4.347870349884033
1728937948424195300,7.4061953125,2.978386878967285,-7.352593421936035,3.9240965843200684
1728937948434174500,7.416174560546875,2.8347349166870117,-8.099584579467773,3.8953661918640137
1728937948444153900,7.42615380859375,2.2409727573394775,-8.628703117370605,3.3925838470458984
1728937948454133000,7.436133056640625,2.6791117191314697,-8.492233276367188,2.7940332889556885
1728937948464142800,7.446142822265625,3.4572272300720215,-8.200140953063965,2.300827741622925
1728937948474122000,7.4561220703125,4.309563159942627,-8.26239013671875,2.049436569213867
1728937948484101400,7.466101318359375,4.417302131652832,-8.372523307800293,1.5634137392044067
1728937948494111000,7.476111083984375,5.07570743560791,-8.798690795898438,1.7549498081207275
1728937948504090400,7.48609033203125,4.797980308532715,-9.05487060546875,1.5658079385757446
1728937948514069500,7.496069580078125,5.023035049438477,-8.98543930053711,1.8746598958969116
1728937948524079400,7.506079345703125,4.7836151123046875,-8.777143478393555,2.099714994430542
1728937948534089000,7.5160888671875,4.577713489532471,-8.506598472595215,2.408566951751709
1728937948544098800,7.526098876953125,4.460397720336914,-8.635885238647461,3.1292216777801514
1728937948554078000,7.536077880859375,3.711012601852417,-8.829815864562988,3.7158010005950928
1728937948564057300,7.546057373046875,3.246537446975708,-9.071630477905273,4.170699596405029
1728937948574036500,7.556036376953125,3.3877954483032227,-9.318233489990234,4.290409564971924
1728937948584046300,7.56604638671875,3.002328872680664,-9.500192642211914,4.3622355461120605
1728937948593995000,7.5759951171875,3.00711727142334,-9.739612579345703,4.388571739196777
1728937948604004900,7.5860048828125,3.383007049560547,-9.763554573059082,4.288015365600586
1728937948614014700,7.5960146484375,3.579331636428833,-9.75397777557373,3.998316764831543
1728937948623993900,7.605993896484375,3.866635799407959,-9.710882186889648,3.3710360527038574
1728937948633973000,7.615972900390625,4.180276393890381,-9.437943458557129,2.715024709701538
1728937948643952400,7.625952392578125,4.072536945343018,-9.181763648986816,2.0901381969451904
1728937948653931500,7.635931640625,4.050989151000977,-8.698134422302246,1.4867992401123047
1728937948663911000,7.645910888671875,3.9264907836914062,-8.097189903259277,1.1540051698684692
1728937948673890000,7.65589013671875,3.9671921730041504,-7.73087739944458,0.9552865028381348
1728937948683900000,7.66589990234375,3.8786067962646484,-7.2352776527404785,0.8547300100326538
1728937948693879000,7.675879150390625,4.189853191375732,-6.847416877746582,0.912190854549408
1728937948703858400,7.6858583984375,4.599261283874512,-6.689399719238281,0.9720458984375
1728937948713837600,7.695837646484375,4.656722068786621,-6.461950302124023,1.1971008777618408
1728937948723817000,7.70581689453125,4.95120906829834,-6.864176273345947,1.3670891523361206
1728937948733826600,7.71582666015625,5.39174222946167,-6.828263282775879,1.9345149993896484
1728937948743806000,7.725805908203125,5.161899089813232,-6.00226354598999,2.894589900970459
1728937948753815600,7.735815673828125,4.376600742340088,-5.714959621429443,3.466804027557373
1728937948763825400,7.745825439453125,4.153939723968506,-5.760449409484863,3.8522706031799316
1728937948773804500,7.755804443359375,3.6750996112823486,-6.708553314208984,3.8762125968933105
1728937948783784000,7.765783935546875,3.134010076522827,-6.995857238769531,3.794809579849243
1728937948793763000,7.77576318359375,2.808398485183716,-6.909666061401367,3.7708675861358643
1728937948803773000,7.78577294921875,3.220201253890991,-7.343016624450684,3.7876269817352295
1728937948813752000,7.795751953125,8.418013572692871,-8.183381080627441,4.611232280731201
1728937948823731500,7.8057314453125,1.3455413579940796,-7.1921820640563965,4.8482584953308105
1728937948833710600,7.815710693359375,-1.072602391242981,-7.745242595672607,4.486733913421631
1728937948843720400,7.825720458984375,-1.1779472827911377,-7.6351094245910645,4.3861775398254395
1728937948853699600,7.835699462890625,-1.280897855758667,-7.733271598815918,4.553771495819092
1728937948863679000,7.845678955078125,-1.2880805730819702,-8.154650688171387,4.759673118591309
1728937948873658000,7.855658203125,-0.8164227604866028,-8.415618896484375,4.874594688415527
1728937948883637500,7.865637451171875,0.3256114423274994,-8.595184326171875,4.558559894561768
1728937948893616600,7.87561669921875,1.1803414821624756,-8.695740699768066,4.436455726623535
1728937948903626500,7.88562646484375,1.9823989868164062,-8.880094528198242,4.486733913421631
1728937948913636000,7.895635986328125,2.8993782997131348,-8.825027465820312,4.651933670043945
1728937948923646000,7.90564599609375,3.6080620288848877,-8.315062522888184,4.627991676330566
1728937948933625000,7.915625,4.563348293304443,-8.494627952575684,4.623203277587891
1728937948943635000,7.925635009765625,5.336675643920898,-7.826645374298096,5.446808815002441
1728937948953583600,7.93558349609375,5.521028995513916,-7.433996200561523,5.714959621429443
1728937948963593500,7.945593505859375,5.963956356048584,-7.091625213623047,5.418078422546387
1728937948973603300,7.955603271484375,6.248866558074951,-6.864176273345947,5.185841083526611
1728937948983613000,7.965613037109375,5.920860767364502,-6.490680694580078,5.403713226318359
1728937948993592300,7.97559228515625,5.724536418914795,-6.524199485778809,5.245696067810059
1728937949003571500,7.985571533203125,5.513846397399902,-6.327875137329102,5.149928092956543
1728937949013550800,7.99555078125,5.054159641265869,-6.349422931671143,4.975151062011719
1728937949023530000,8.005530029296875,5.0014872550964355,-6.368576526641846,4.946420669555664
1728937949033509000,8.015509033203125,4.903325080871582,-6.540958881378174,5.092466831207275
1728937949043519000,8.02551904296875,4.55616569519043,-6.615179061889648,5.628767967224121
1728937949053498000,8.035498046875,4.426878929138184,-6.9240312576293945,6.133944988250732
1728937949063508000,8.045508056640625,4.307168960571289,-7.4555439949035645,6.212953567504883
1728937949073487400,8.0554873046875,4.225766181945801,-7.845798969268799,6.038176536560059
1728937949083466500,8.065466552734375,4.089296340942383,-8.20492935180664,5.916072368621826
1728937949093445600,8.075445556640625,3.73016619682312,-8.51138687133789,5.7556610107421875
1728937949103425000,8.085425048828125,3.3901896476745605,-8.863334655761719,5.631162166595459
1728937949113435000,8.095434814453125,3.0573954582214355,-9.028534889221191,5.51624059677124
1728937949123444500,8.105444580078125,2.734178304672241,-9.074024200439453,5.47075080871582
1728937949133423900,8.115423828125,2.52109432220459,-9.023746490478516,5.348646640777588
1728937949143433500,8.12543359375,2.5546131134033203,-8.990227699279785,5.102043628692627
1728937949153412900,8.135412841796875,2.5665841102600098,-9.220070838928223,4.548983097076416
1728937949163392000,8.14539208984375,2.717418909072876,-9.342175483703613,4.137180328369141
1728937949173371400,8.155371337890625,3.071760892868042,-8.98543930053711,4.410119533538818
1728937949183381000,8.165381103515625,3.1699230670928955,-9.224859237670898,3.9049429893493652
1728937949193329700,8.17532958984375,2.8634653091430664,-9.493009567260742,3.002328872680664
1728937949203339500,8.185339599609375,2.4684219360351562,-9.909601211547852,-0.05506663769483566
1728937949213319000,8.19531884765625,3.8977603912353516,-12.282255172729492,-2.889801502227783
1728937949223328500,8.20532861328125,4.151545524597168,-9.921571731567383,1.6065093278884888
1728937949233308000,8.215307861328125,1.6663644313812256,-6.955155849456787,4.19224739074707
1728937949243287000,8.225287109375,3.2130186557769775,-8.403648376464844,4.786009311676025
1728937949253266400,8.235266357421875,4.54419469833374,-7.6997528076171875,6.189011573791504
1728937949263245600,8.24524560546875,3.222595453262329,-6.885724067687988,6.4834980964660645
1728937949273224700,8.255224609375,4.05817174911499,-7.795520782470703,4.477157115936279
1728937949283204000,8.2652041015625,3.205836057662964,-8.195352554321289,3.315969467163086
1728937949293213700,8.275213623046875,1.8171991109848022,-8.638279914855957,2.760514497756958
1728937949303193000,8.285193115234375,1.0055646896362305,-9.248801231384277,2.1068975925445557
1728937949313203000,8.295202880859375,0.6320692300796509,-9.591172218322754,2.5306711196899414
1728937949323212500,8.305212646484375,0.42856210470199585,-9.603142738342285,3.3279404640197754
1728937949333192000,8.31519189453125,0.7637503147125244,-9.677363395690918,3.4548330307006836
1728937949343171000,8.325171142578125,1.7286136150360107,-9.737217903137207,3.40216064453125
1728937949353150500,8.335150390625,2.1475989818573,-9.287108421325684,3.184288263320923
1728937949363160000,8.34516015625,2.6001031398773193,-9.196128845214844,3.201047658920288
1728937949373139500,8.355139404296875,2.7078421115875244,-8.882488250732422,3.7421371936798096
1728937949383118600,8.36511865234375,2.4803929328918457,-8.798690795898438,3.6942532062530518
1728937949393097700,8.37509765625,2.38462495803833,-8.810662269592285,3.270479440689087
1728937949403107600,8.385107666015625,2.341529369354248,-9.188945770263672,2.3319525718688965
1728937949413087000,8.3950869140625,2.497152328491211,-8.822632789611816,2.7461493015289307
1728937949423066000,8.405066162109375,2.403778553009033,-8.774748802185059,2.6168625354766846
1728937949433045200,8.415045166015625,2.8658595085144043,-8.769960403442383,2.561795711517334
1728937949443055000,8.42505517578125,3.287238836288452,-8.918401718139648,1.968033790588379
1728937949453034500,8.435034423828125,3.9001545906066895,-9.430760383605957,1.434126853942871
1728937949463013600,8.445013671875,4.446032524108887,-9.682151794433594,1.4197616577148438
1728937949472992800,8.45499267578125,4.153939723968506,-9.892841339111328,1.400607943534851
1728937949483002600,8.465002685546875,3.971980571746826,-9.907206535339355,1.2497732639312744
1728937949493012500,8.475012451171875,3.4141316413879395,-9.624691009521484,1.0893617868423462
1728937949503022000,8.48502197265625,3.2609026432037354,-10.160991668701172,1.2689268589019775
1728937949513001500,8.49500146484375,2.978386878967285,-10.182539939880371,2.1978771686553955
1728937949522980600,8.504980712890625,3.1890766620635986,-10.108319282531738,2.5713725090026855
1728937949532960000,8.5149599609375,3.512293815612793,-10.848128318786621,3.0550012588500977
1728937949542969600,8.524969482421875,3.4332852363586426,-10.144232749938965,3.6559460163116455
1728937949552949000,8.534948974609375,3.359065055847168,-10.450690269470215,3.6942532062530518
1728937949562928000,8.54492822265625,3.928884983062744,-10.613495826721191,3.5027170181274414
1728937949572938000,8.55493798828125,3.7876269817352295,-10.211270332336426,3.6774938106536865
1728937949582947600,8.564947509765625,3.670311212539673,-10.766724586486816,3.885789394378662
1728937949592927000,8.574927001953125,3.4356794357299805,-9.988609313964844,3.9264907836914062
1728937949602906000,8.584906005859375,3.426102638244629,-10.359710693359375,3.3877954483032227
1728937949612885500,8.594885498046875,3.9001545906066895,-10.338163375854492,3.4955344200134277
1728937949622864600,8.60486474609375,3.2537200450897217,-9.368511199951172,3.603273630142212
1728937949632844000,8.614843994140625,2.9233202934265137,-9.181763648986816,2.829946517944336
1728937949642823200,8.6248232421875,3.397372245788574,-9.205705642700195,2.4396915435791016
1728937949652802600,8.634802490234375,3.3686418533325195,-8.899248123168945,2.279279947280884
1728937949662812200,8.644812255859375,3.2561142444610596,-8.772355079650879,2.161964178085327
1728937949672791600,8.65479150390625,3.1316158771514893,-8.882488250732422,2.0183119773864746
1728937949682770700,8.664770751953125,3.2393548488616943,-8.674192428588867,1.8483237028121948
1728937949692749800,8.674749755859375,3.1244332790374756,-9.588777542114258,2.2026655673980713
1728937949702729200,8.684729248046875,2.5689783096313477,-9.004592895507812,2.782062292098999
1728937949712678000,8.694677978515625,2.1595699787139893,-8.35097599029541,2.940079689025879
1728937949722687700,8.704687744140625,2.8227639198303223,-9.016563415527344,3.0119056701660156
1728937949732697300,8.714697265625,2.363077163696289,-6.962338447570801,2.892195701599121
1728937949742707200,8.724707275390625,3.2082302570343018,-10.067618370056152,2.5306711196899414
1728937949752686600,8.7346865234375,3.6104562282562256,-9.454702377319336,2.8419175148010254
1728937949762665700,8.744665771484375,3.1435868740081787,-10.1753568649292,2.5498247146606445
1728937949772644900,8.754644775390625,2.875436305999756,-9.765948295593262,1.8770540952682495
1728937949782624300,8.764624267578125,2.7772738933563232,-9.792284965515137,1.115697979927063
1728937949792603400,8.774603271484375,2.4157495498657227,-10.000580787658691,0.8475474119186401
1728937949802582800,8.784582763671875,2.3319525718688965,-9.847352027893066,0.629675030708313
1728937949812562000,8.79456201171875,3.354276657104492,-9.011775016784668,0.31603461503982544
1728937949822571800,8.80457177734375,3.5386300086975098,-9.77791976928711,0.304063618183136
1728937949832581400,8.814581298828125,2.097320795059204,-9.437943458557129,0.586579442024231
1728937949842591200,8.82459130859375,1.2306196689605713,-9.440337181091309,0.9409212470054626
1728937949852570600,8.834570556640625,0.8978256583213806,-9.028534889221191,1.2306196689605713
1728937949862580200,8.844580322265625,1.1037269830703735,-8.78432559967041,1.280897855758667
1728937949872559600,8.8545595703125,1.115697979927063,-8.439560890197754,1.0678139925003052
1728937949882538800,8.864538818359375,1.4173674583435059,-8.348581314086914,0.7110779285430908
1728937949892518000,8.874517822265625,1.6376339197158813,-8.47786808013916,0.4572925269603729
1728937949902497300,8.884497314453125,1.357512354850769,-8.580819129943848,0.1843535304069519
1728937949912476400,8.894476318359375,1.072602391242981,-8.89685344696045,-0.023942016065120697
1728937949922486300,8.904486328125,0.8068459630012512,-9.188945770263672,-0.1628057211637497
1728937949932465400,8.91446533203125,0.727837324142456,-9.272743225097656,-0.33039984107017517
1728937949942444800,8.92444482421875,0.849941611289978,-9.370905876159668,-0.48602294921875
1728937949952424000,8.934423828125,1.2306196689605713,-9.473855972290039,-0.6799532771110535
1728937949962403300,8.9444033203125,1.6543933153152466,-9.39245319366455,-0.9481038451194763
1728937949972382500,8.954382568359375,1.7693150043487549,-9.097966194152832,-1.1348515748977661
1728937949982392300,8.964392333984375,2.161964178085327,-8.983044624328613,-1.4867992401123047
1728937949992371500,8.974371337890625,2.3080103397369385,-8.69095230102539,-1.8411411046981812
1728937950002350800,8.984350830078125,2.5019407272338867,-7.936778545379639,-2.477998733520508
1728937950012330000,8.994330078125,3.821146011352539,-8.032546997070312,-3.689464807510376
1728937950022339800,9.00433984375,2.231395959854126,-8.506598472595215,-4.199429988861084
1728937950032319000,9.014319091796875,1.4269442558288574,-8.250418663024902,-4.37420654296875
1728937950042298400,9.02429833984375,3.670311212539673,-7.422025203704834,-4.405331134796143
1728937950052308000,9.034307861328125,2.671929121017456,-5.762843608856201,-0.9600749015808105
1728937950062317800,9.04431787109375,3.023876667022705,-7.015010833740234,1.1994950771331787
1728937950072297000,9.054296875,3.5721490383148193,-8.286332130432129,3.095702886581421
1728937950082276400,9.0642763671875,3.2776620388031006,-8.135497093200684,4.565742492675781
1728937950092255500,9.07425537109375,3.4117374420166016,-7.0341644287109375,4.809951305389404
1728937950102235000,9.08423486328125,4.240131378173828,-6.813898086547852,4.036623954772949
1728937950112214000,9.094214111328125,3.442862033843994,-8.14028549194336,1.889025092124939
1728937950122193400,9.104193359375,2.935291290283203,-8.35336971282959,0.7230489253997803
1728937950132172500,9.114172607421875,2.698265314102173,-8.523358345031738,-0.29209262132644653
1728937950142182400,9.124182373046875,2.293645143508911,-8.487444877624512,-1.0127472877502441
1728937950152192000,9.13419189453125,1.7836803197860718,-8.528146743774414,-1.2497732639312744
1728937950162201900,9.144201904296875,1.6136919260025024,-8.355764389038086,-0.811634361743927
1728937950172181000,9.154180908203125,1.8938134908676147,-7.891288757324219,-0.8738836050033569
1728937950182160400,9.164160400390625,1.5179238319396973,-8.372523307800293,-1.0893617868423462
1728937950192139500,9.174139404296875,0.49320554733276367,-8.463502883911133,-0.8786720037460327
1728937950202119000,9.184118896484375,-0.05267243832349777,-7.237671852111816,-0.7206547260284424
1728937950212098000,9.19409814453125,-0.7086837291717529,-8.08043098449707,-0.7015010714530945
1728937950222108000,9.20410791015625,-0.9026140570640564,-9.835380554199219,-1.170764684677124
1728937950232087000,9.214087158203125,-0.790086567401886,-11.008539199829102,-0.14365209639072418
1728937950242066400,9.22406640625,0.9361328482627869,-8.576030731201172,-0.3471592366695404
1728937950252045600,9.234045654296875,2.628833532333374,-12.054805755615234,-2.1116859912872314
1728937950262025000,9.24402490234375,0.7996633648872375,-12.12902545928955,-2.8610711097717285
1728937950272004000,9.254004150390625,0.6488286852836609,-10.529699325561523,-3.162740468978882
1728937950281983200,9.263983154296875,1.05105459690094,-11.329362869262695,-3.8953661918640137
1728937950291993000,9.2739931640625,1.9776105880737305,-11.042057991027832,-4.376600742340088
1728937950302003000,9.2840029296875,2.7102363109588623,-11.082759857177734,-4.496310710906982
1728937950311982000,9.293982177734375,4.2975921630859375,-11.398794174194336,-4.774038314819336
1728937950321961500,9.30396142578125,4.699818134307861,-11.719616889953613,-5.224148273468018
1728937950331940600,9.313940673828125,3.821146011352539,-11.57357120513916,-5.073313236236572
1728937950341919700,9.323919677734375,3.821146011352539,-11.245565414428711,-4.594472885131836
1728937950351899100,9.333899169921875,4.534617900848389,-10.94150161743164,-4.1156325340271
1728937950361878300,9.343878173828125,3.9193081855773926,-10.098742485046387,-3.3949780464172363
1728937950371888000,9.35388818359375,2.319981336593628,-9.301473617553711,-2.1595699787139893
1728937950381898000,9.36389794921875,2.410961151123047,-10.285490036010742,-1.5705963373184204
1728937950391877000,9.373877197265625,1.7094600200653076,-10.699687004089355,-1.4748282432556152
1728937950401856500,9.3838564453125,0.6536170840263367,-11.252747535705566,-1.647210717201233
1728937950411835600,9.393835693359375,1.5155296325683594,-11.137825965881348,-1.05105459690094
1728937950421814800,9.403814697265625,1.4676456451416016,-10.855310440063477,-0.5961562395095825
1728937950431794200,9.413794189453125,1.6280571222305298,-10.60152530670166,-0.1173158809542656
1728937950441773300,9.423773193359375,1.3718775510787964,-9.775525093078613,0.26815059781074524
1728937950451752700,9.433752685546875,0.5027823448181152,-8.942343711853027,0.2322375625371933
1728937950461762300,9.44376220703125,0.17238251864910126,-8.44195556640625,0.011971008032560349
1728937950471772200,9.453772216796875,0.22744916379451752,-7.951143741607666,0.14365209639072418
1728937950481782000,9.463781982421875,0.22505496442317963,-7.603984832763672,0.28969839215278625
1728937950491761200,9.47376123046875,0.7565677165985107,-7.457938194274902,0.47644615173339844
1728937950501740500,9.483740478515625,0.2825157940387726,-6.897695064544678,1.0630255937576294
1728937950511719700,9.4937197265625,-0.3232172429561615,-6.744466304779053,1.7070658206939697
1728937950521698800,9.50369873046875,-0.3519476354122162,-6.919242858886719,1.824381709098816
1728937950531678200,9.51367822265625,0.545877993106842,-8.700529098510742,0.7493851184844971
1728937950541687800,9.523687744140625,0.5554547905921936,-10.591948509216309,-1.3431471586227417
1728937950551667200,9.533667236328125,-0.9289502501487732,-10.261548042297363,-1.5083470344543457
1728937950561646300,9.543646240234375,-1.7525556087493896,-10.584765434265137,-0.9265560507774353
1728937950571625700,9.553625732421875,-1.1971008777618408,-11.595118522644043,-0.7757213711738586
1728937950581604900,9.56360498046875,-0.5841852426528931,-11.652579307556152,-0.49320554733276367
1728937950591584300,9.573584228515625,-0.17717093229293823,-11.865663528442383,-0.4692635238170624
1728937950601593900,9.58359375,-0.47405192255973816,-11.997344970703125,-0.40222588181495667
1728937950611573200,9.5935732421875,-0.42377370595932007,-11.966219902038574,-0.21787235140800476
1728937950621552400,9.603552490234375,-0.7541735172271729,-11.772290229797363,-0.19871874153614044
1728937950631531800,9.61353173828125,-0.586579442024231,-11.456254959106445,-0.17956513166427612
1728937950641511000,9.623510986328125,-0.8523358106613159,-11.097125053405762,-0.23702596127986908
1728937950651490300,9.633490234375,-0.7015010714530945,-11.12106704711914,-0.3447650372982025
1728937950661500000,9.6435,-0.6536170840263367,-10.958261489868164,-0.7709329724311829
1728937950671479300,9.653479248046875,-0.5650315880775452,-10.759542465209961,-1.1252747774124146
1728937950681458400,9.66345849609375,0.11971008777618408,-10.237606048583984,-1.3670891523361206
1728937950691468300,9.67346826171875,-0.15322890877723694,-9.533711433410645,-1.2665326595306396
1728937950701478000,9.683477783203125,-0.1412578970193863,-9.311050415039062,-1.2066776752471924
1728937950711457300,9.693457275390625,0.21787235140800476,-9.339780807495117,-1.2401964664459229
1728937950721436400,9.7034365234375,0.1628057211637497,-8.983044624328613,-1.280897855758667
1728937950731415800,9.713415771484375,0.1388636976480484,-8.89685344696045,-1.4245500564575195
1728937950741425400,9.72342529296875,0.27054479718208313,-9.093177795410156,-1.6663644313812256
1728937950751374300,9.733374267578125,-0.3902548849582672,-9.39245319366455,-1.86508309841156
1728937950761384000,9.743384033203125,-0.16519992053508759,-9.545681953430176,-1.9608511924743652
1728937950771393800,9.753393798828125,0.22505496442317963,-9.299078941345215,-1.764526605606079
1728937950781373000,9.763373046875,0.667982280254364,-8.956708908081055,-1.3862427473068237
1728937950791352300,9.773352294921875,1.414973258972168,-8.916007041931152,-1.0462661981582642
1728937950801331500,9.78333154296875,1.6759412288665771,-9.097966194152832,-1.0582371950149536
1728937950811310800,9.793310791015625,1.8195933103561401,-9.028534889221191,-1.2473790645599365
1728937950821290000,9.8032900390625,2.1140801906585693,-9.038111686706543,-1.4389152526855469
1728937950831269000,9.81326904296875,2.5258827209472656,-9.23682975769043,-1.577778935432434
1728937950841279000,9.823279052734375,2.717418909072876,-9.229647636413574,-1.6687586307525635
1728937950851258400,9.83325830078125,3.045424461364746,-9.442731857299805,-1.8363527059555054
1728937950861237500,9.843237548828125,2.9496564865112305,-9.251194953918457,-1.9967641830444336
1728937950871216600,9.853216552734375,3.0190882682800293,-9.188945770263672,-2.2242133617401123
1728937950881196000,9.863196044921875,2.875436305999756,-9.078812599182129,-2.4468741416931152
1728937950891205600,9.87320556640625,2.786850690841675,-8.760383605957031,-2.58813214302063
1728937950901185000,9.88318505859375,3.1651346683502197,-8.908824920654297,-2.7126305103302
1728937950911195000,9.89319482421875,3.1292216777801514,-8.908824920654297,-2.408566951751709
1728937950921204500,9.90320458984375,3.1914708614349365,-8.789113998413086,-1.9632453918457031
1728937950931183900,9.913183837890625,3.047818660736084,-9.263166427612305,-1.6543933153152466
1728937950941163000,9.9231630859375,3.531447410583496,-8.990227699279785,-0.6224924325942993
1728937950951142400,9.933142333984375,3.758896589279175,-8.813055992126465,-0.05267243832349777
1728937950961121500,9.94312158203125,3.8307228088378906,-8.631096839904785,0.38307225704193115
1728937950971131400,9.95313134765625,3.6367924213409424,-8.185775756835938,1.1540051698684692
1728937950981110500,9.963110595703125,3.794809579849243,-8.42040729522705,1.7357962131500244
1728937950991120400,9.973120361328125,4.225766181945801,-8.899248123168945,1.656787633895874
1728937951001130000,9.9831298828125,4.616020679473877,-9.897629737854004,0.7158663272857666
1728937951011109400,9.993109375,4.422090530395508,-10.795455932617188,-0.2753331959247589
1728937951021088500,10.003088623046875,3.689464807510376,-11.745953559875488,-0.7948749661445618
1728937951031068000,10.01306787109375,3.31118106842041,-12.746729850769043,-0.9361328482627869
1728937951041047000,10.023047119140625,3.60566782951355,-13.73314094543457,-0.6248866319656372
1728937951051057000,10.033056884765625,3.579331636428833,-13.838485717773438,0.05267243832349777
1728937951061036000,10.0430361328125,3.378218650817871,-13.536816596984863,1.0055646896362305
1728937951071015400,10.053015380859375,3.7493197917938232,-13.453019142150879,2.3965959548950195
1728937951080994600,10.06299462890625,4.127603530883789,-13.026851654052734,3.603273630142212
1728937951091004400,10.07300439453125,4.055777549743652,-12.138602256774902,4.4508209228515625
1728937951101014000,10.083013916015625,2.985569477081299,-11.267112731933594,4.596867084503174
1728937951110993400,10.092993408203125,1.742978811264038,-10.92953109741211,3.8091750144958496
1728937951120972500,10.10297265625,0.9193734526634216,-10.594342231750488,2.408566951751709
1728937951130921200,10.112921142578125,0.2346317619085312,-10.271124839782715,0.9265560507774353
1728937951140931000,10.12293115234375,-0.1604115068912506,-10.019734382629395,-0.3208230137825012
1728937951150910500,10.132910400390625,-0.7805097699165344,-9.90241813659668,-0.950498104095459
1728937951160889600,10.1428896484375,-1.3407529592514038,-9.519346237182617,-1.139639973640442
1728937951170868700,10.15286865234375,-1.4676456451416016,-9.222464561462402,-0.7948749661445618
1728937951180878600,10.162878662109375,-1.403002142906189,-8.932766914367676,-0.2849099934101105
1728937951190857700,10.172857666015625,-1.3407529592514038,-8.801085472106934,0.06703764945268631
1728937951200837000,10.182837158203125,-1.6687586307525635,-8.753201484680176,0.12210428714752197
1728937951210816300,10.192816162109375,-2.164358377456665,-8.999804496765137,0.1412578970193863
1728937951220826000,10.202826171875,-3.0119056701660156,-8.942343711853027,0.31842881441116333
1728937951230805200,10.21280517578125,-4.19224739074707,-9.105149269104004,0.4381389021873474
1728937951240784600,10.22278466796875,-10.192116737365723,-9.600749015808105,0.16519992053508759
1728937951250794500,10.23279443359375,-6.339846134185791,-9.174580574035645,0.4429273009300232
1728937951260804000,10.24280419921875,-6.794744491577148,-9.081207275390625,0.38546648621559143
1728937951270783500,10.252783447265625,-5.702988624572754,-9.519346237182617,-0.031124621629714966
1728937951280762600,10.2627626953125,-4.592078685760498,-9.294290542602539,0.31124621629714966
1728937951290742000,10.272741943359375,-3.4404678344726562,-9.138668060302734,0.44532153010368347
1728937951300751600,10.282751708984375,-2.6671407222747803,-8.583212852478027,0.7350199222564697
1728937951310731000,10.29273095703125,-2.2864625453948975,-8.286332130432129,0.871489405632019
1728937951320710100,10.302710205078125,-1.6112977266311646,-8.08043098449707,0.849941611289978
1728937951330689300,10.312689208984375,-1.278503656387329,-7.95832633972168,0.7589619159698486
1728937951340699100,10.32269921875,-1.0797849893569946,-7.893682956695557,0.5626373887062073
1728937951350678500,10.332678466796875,-0.849941611289978,-7.9176249504089355,0.3064578175544739
1728937951360657700,10.34265771484375,-0.6368576288223267,-7.9846625328063965,0.15083470940589905
1728937951370636800,10.35263671875,-0.40462008118629456,-8.056488990783691,0.047884032130241394
1728937951380646700,10.362646728515625,-0.12689268589019775,-8.149862289428711,0.016759412363171577
1728937951390595300,10.37259521484375,0.1149216815829277,-8.310274124145508,0.05267243832349777
1728937951400605200,10.382605224609375,0.2825157940387726,-8.389283180236816,0.06224924325942993
1728937951410615000,10.392614990234375,0.3232172429561615,-8.487444877624512,0.1364694982767105
1728937951420594200,10.40259423828125,0.5123591423034668,-8.588001251220703,0.15801730751991272
1728937951430573300,10.4125732421875,0.6847416758537292,-8.89445972442627,0.21547815203666687
1728937951440552700,10.422552734375,0.8619126081466675,-9.119514465332031,0.15083470940589905
1728937951450531800,10.43253173828125,1.1276689767837524,-9.193734169006348,0.05027823522686958
1728937951460511200,10.44251123046875,1.3766659498214722,-9.330204010009766,0.07182604819536209
1728937951470490400,10.452490478515625,1.7166426181793213,-9.287108421325684,-0.05267243832349777
1728937951480500200,10.462500244140625,2.0398597717285156,-9.311050415039062,-0.1364694982767105
1728937951490479400,10.472479248046875,2.4468741416931152,-9.320627212524414,-0.16998831927776337
1728937951500458800,10.482458740234375,2.652775526046753,-9.272743225097656,-0.0694318488240242
1728937951510438000,10.49243798828125,2.983175277709961,-9.124302864074707,0.07661445438861847
1728937951520417300,10.502417236328125,2.9161376953125,-9.016563415527344,0.21308395266532898
1728937951530427000,10.512427001953125,3.0334534645080566,-8.959102630615234,0.33758243918418884
1728937951540406300,10.52240625,3.2297780513763428,-8.789113998413086,0.5027823448181152
1728937951550385400,10.532385498046875,3.354276657104492,-8.652645111083984,0.6440402865409851
1728937951560395300,10.542395263671875,3.313575267791748,-8.520963668823242,0.7445967197418213
1728937951570344000,10.552343994140625,3.2992098331451416,-8.525752067565918,0.8068459630012512
1728937951580353800,10.562353759765625,3.2632968425750732,-8.611943244934082,0.9050082564353943
1728937951590333000,10.5723330078125,3.1435868740081787,-8.882488250732422,0.9888052940368652
1728937951600312300,10.582312255859375,3.0119056701660156,-9.255983352661133,1.0606313943862915
1728937951610291500,10.59229150390625,2.849100112915039,-9.648633003234863,1.1563993692398071
1728937951620270600,10.6022705078125,2.5115175247192383,-10.034099578857422,1.256955862045288
1728937951630250000,10.61225,2.1811177730560303,-10.371682167053223,1.3192051649093628
1728937951640259600,10.622259521484375,1.8483237028121948,-10.500968933105469,1.278503656387329
1728937951650239000,10.632239013671875,1.7932571172714233,-10.467450141906738,1.2018892765045166
1728937951660218000,10.642218017578125,2.410961151123047,-10.903194427490234,1.048660397529602
1728937951670228000,10.65222802734375,2.5713725090026855,-11.561599731445312,1.0797849893569946
1728937951680237800,10.66223779296875,2.542642116546631,-12.212822914123535,1.1683704853057861
1728937951690217000,10.672217041015625,2.607285737991333,-12.78264331817627,1.0295066833496094
1728937951700196400,10.6821962890625,2.6815059185028076,-13.007698059082031,0.727837324142456
1728937951710175500,10.692175537109375,2.9328970909118652,-13.378799438476562,0.11252748221158981
1728937951720185300,10.702185302734375,3.5386300086975098,-13.539210319519043,-0.5937620401382446
1728937951730164500,10.71216455078125,3.469198226928711,-13.448230743408203,-0.9720458984375
1728937951740143900,10.722143798828125,3.047818660736084,-13.007698059082031,-1.3239935636520386
1728937951750153500,10.732153564453125,1.1109095811843872,-13.536816596984863,-1.8363527059555054
1728937951760163300,10.742163330078125,-1.1779472827911377,-13.709198951721191,-2.1954829692840576
1728937951770142500,10.752142578125,-0.08619125932455063,-13.105859756469727,-2.319981336593628
1728937951780121900,10.762121826171875,0.3423708379268646,-12.354081153869629,-1.764526605606079
1728937951790101000,10.77210107421875,-0.7469909191131592,-11.714828491210938,-0.6607996821403503
1728937951800110800,10.78211083984375,-1.821987509727478,-11.12106704711914,0.5793967843055725
1728937951810090000,10.792090087890625,-2.2457611560821533,-10.706870079040527,1.0438719987869263
1728937951820069400,10.8020693359375,-3.2848446369171143,-10.44350814819336,1.072602391242981
1728937951830048500,10.812048583984375,-4.0533833503723145,-10.342951774597168,0.45010992884635925
1728937951840058400,10.822058349609375,-4.580107688903809,-10.02452278137207,-0.28969839215278625
1728937951850037500,10.83203759765625,-4.963180065155029,-9.818621635437012,-0.9265560507774353
1728937951860047400,10.84204736328125,-5.102043628692627,-9.914389610290527,-1.3239935636520386
1728937951870057000,10.852056884765625,-4.434061527252197,-9.765948295593262,-1.3958195447921753
1728937951880066800,10.86206689453125,-3.5242648124694824,-9.560047149658203,-1.5203180313110352
1728937951890076700,10.87207666015625,-2.999934673309326,-9.263166427612305,-1.3958195447921753
1728937951900086300,10.882086181640625,-2.647987127304077,-9.059659004211426,-1.434126853942871
1728937951910065700,10.892065673828125,-2.2409727573394775,-8.83939266204834,-1.4844050407409668
1728937951920044800,10.902044921875,-1.9369091987609863,-8.580819129943848,-1.5059528350830078
1728937951930024200,10.912024169921875,-1.6376339197158813,-8.418013572692871,-1.436521053314209
1728937951940033800,10.92203369140625,-1.4532804489135742,-8.221688270568848,-1.3048399686813354
1728937951950013200,10.93201318359375,-1.158793568611145,-7.987056732177734,-1.0845733880996704
1728937951959992300,10.941992431640625,-1.0462661981582642,-7.778761386871338,-0.9097966551780701
1728937951970002200,10.952002197265625,-0.8810662031173706,-7.752425193786621,-0.7422025203704834
1728937951980012000,10.962011962890625,-0.6320692300796509,-7.781155586242676,-0.5841852426528931
1728937951990052000,10.972052001953125,-0.37828385829925537,-7.644686222076416,-0.45010992884635925
1728937952000031500,10.982031494140625,0.0454898327589035,-7.556100368499756,-0.33039984107017517
1728937952010041000,10.992041015625,0.47165772318840027,-7.601590633392334,-0.2322375625371933
1728937952020051000,11.002051025390625,0.9648633003234863,-7.762001991271973,-0.11252748221158981
1728937952030030300,11.0120302734375,1.3718775510787964,-7.922413349151611,0.026336219161748886
1728937952040040000,11.0220400390625,1.599326729774475,-8.145073890686035,0.05027823522686958
1728937952050019300,11.032019287109375,1.9105730056762695,-8.35097599029541,0.05267243832349777
1728937952060029000,11.04202880859375,2.2577321529388428,-8.530540466308594,0.08140286058187485
1728937952070008300,11.05200830078125,2.559401512145996,-8.647856712341309,0.1628057211637497
1728937952079987500,11.061987548828125,2.8610711097717285,-8.755595207214355,0.21547815203666687
1728937952089997300,11.071997314453125,3.0837318897247314,-8.774748802185059,0.20350714027881622
1728937952100007000,11.0820068359375,3.2585084438323975,-8.762778282165527,0.1628057211637497
1728937952109986300,11.091986328125,3.3877954483032227,-8.7268648147583,0.15562310814857483
1728937952119965400,11.10196533203125,3.469198226928711,-8.705317497253418,0.19153612852096558
1728937952129975300,11.111975341796875,3.445256233215332,-8.559270858764648,0.21308395266532898
1728937952139985200,11.121985107421875,3.4356794357299805,-8.394071578979492,0.2513911724090576
1728937952149964300,11.13196435546875,3.4332852363586426,-8.269572257995605,0.29209262132644653
1728937952159974100,11.14197412109375,3.421314239501953,-8.176198959350586,0.3663128614425659
1728937952169953300,11.151953369140625,3.375824451446533,-8.037335395812988,0.3687070608139038
1728937952179932700,11.1619326171875,3.3303346633911133,-8.037335395812988,0.2513911724090576
1728937952189911800,11.171911865234375,3.2178070545196533,-8.1139497756958,0.08619125932455063
1728937952199921700,11.181921630859375,2.980781078338623,-8.190564155578613,-0.047884032130241394
1728937952209900800,11.19190087890625,2.8634653091430664,-8.31985092163086,-0.1364694982767105
1728937952219880200,11.201880126953125,2.7030537128448486,-8.418013572692871,-0.22505496442317963
1728937952229859300,11.211859375,2.7246015071868896,-8.71489429473877,-0.3208230137825012
1728937952239869200,11.221869140625,2.647987127304077,-9.11233139038086,-0.40701428055763245
1728937952249848300,11.231848388671875,2.6001031398773193,-9.469067573547363,-0.38307225704193115
1728937952259858200,11.241858154296875,2.580949544906616,-9.856928825378418,-0.3663128614425659
1728937952269867800,11.25186767578125,2.583343744277954,-10.271124839782715,-0.3256114423274994
1728937952279877600,11.261877685546875,2.7676970958709717,-10.6925048828125,-0.29209262132644653
1728937952289887500,11.271887451171875,3.1220390796661377,-11.587936401367188,-0.3998316824436188
1728937952299897000,11.28189697265625,3.6798880100250244,-12.433089256286621,-0.5578489899635315
1728937952309907000,11.291906982421875,4.039018154144287,-13.093889236450195,-0.6607996821403503
1728937952319916800,11.301916748046875,4.180276393890381,-13.184868812561035,-0.5434837937355042
1728937952329865500,11.311865478515625,4.134786128997803,-13.350069046020508,-0.11013327538967133
1728937952339905800,11.32190576171875,4.015076160430908,-13.503297805786133,0.6512228846549988
1728937952349885000,11.331885009765625,3.6128504276275635,-13.740324020385742,1.6759412288665771
1728937952359894800,11.341894775390625,3.090914487838745,-13.623007774353027,2.542642116546631
1728937952369874000,11.3518740234375,2.499546527862549,-13.014880180358887,3.136404275894165
1728937952379883800,11.3618837890625,1.9033904075622559,-12.469002723693848,3.1483752727508545
1728937952389863000,11.37186279296875,1.6041151285171509,-11.78665542602539,3.0358476638793945
1728937952399872800,11.381872802734375,1.2306196689605713,-11.018115997314453,2.5474305152893066
1728937952409852000,11.391851806640625,0.4836287498474121,-10.261548042297363,1.6160861253738403
1728937952419831300,11.401831298828125,-0.23702596127986908,-10.108319282531738,0.24899697303771973
1728937952429810400,11.411810546875,-0.4189853072166443,-10.20887565612793,-0.9002198576927185
1728937952439789800,11.421789794921875,-0.5003881454467773,-10.029311180114746,-1.2689268589019775
1728937952449769000,11.43176904296875,-0.751779317855835,-9.950302124023438,-1.0031704902648926
1728937952459748400,11.441748291015625,-2.2816741466522217,-9.919178009033203,-0.31364041566848755
1728937952469727500,11.4517275390625,-3.248931646347046,-9.871294021606445,-0.0694318488240242
1728937952479706600,11.46170654296875,-3.797203779220581,-10.29746150970459,0.19871874153614044
1728937952489686000,11.47168603515625,-3.60566782951355,-10.666168212890625,0.5817909836769104
1728937952499665200,11.4816650390625,-4.041412353515625,-10.541669845581055,0.9696516990661621
1728937952509644500,11.49164453125,-4.46518611907959,-10.338163375854492,1.194706678390503
1728937952519623700,11.501623779296875,-4.37420654296875,-10.160991668701172,1.2737152576446533
1728937952529603000,11.51160302734375,-4.0078935623168945,-9.818621635437012,1.2210428714752197
1728937952539582200,11.521582275390625,-3.6583402156829834,-9.346963882446289,1.0055646896362305
1728937952549561300,11.531561279296875,-3.3494882583618164,-8.971074104309082,0.8044517636299133
1728937952559571200,11.5415712890625,-2.765302896499634,-8.341399192810059,0.5841852426528931
1728937952569581000,11.5515810546875,-2.451662540435791,-8.056488990783691,0.47884035110473633
1728937952579590700,11.561590576171875,-1.9297266006469727,-7.65186882019043,0.3663128614425659
1728937952589570000,11.571570068359375,-1.4987702369689941,-7.3669586181640625,0.15562310814857483
1728937952599549200,11.581549072265625,-1.0773907899856567,-7.220912456512451,0.05027823522686958
1728937952609528600,11.591528564453125,-0.7038952708244324,-7.0772600173950195,-0.026336219161748886
1728937952619507700,11.6015078125,-0.4596867263317108,-7.074865818023682,-0.004788403399288654
1728937952629487000,11.611487060546875,-0.10773907601833344,-7.072471618652344,0.05027823522686958
1728937952639466200,11.62146630859375,0.1364694982767105,-7.132327079772949,0.09576806426048279
1728937952649445400,11.6314453125,0.4189853072166443,-7.295132637023926,0.1364694982767105
1728937952659424800,11.6414248046875,0.7398083209991455,-7.527369976043701,0.10055647045373917
1728937952669404000,11.65140380859375,1.0007762908935547,-7.726089000701904,0.09816227108240128
1728937952679383300,11.66138330078125,1.4293384552001953,-7.903259754180908,0.16759411990642548
1728937952689362400,11.671362548828125,1.7046716213226318,-8.166622161865234,0.20111294090747833
1728937952699341800,11.681341796875,1.8339585065841675,-8.429984092712402,0.22026655077934265
1728937952709321000,11.691321044921875,2.056619167327881,-8.631096839904785,0.26575639843940735
1728937952719300400,11.70130029296875,2.3080103397369385,-8.736441612243652,0.2753331959247589
1728937952729279500,11.711279541015625,2.6168625354766846,-8.78193187713623,0.3471592366695404
1728937952739289300,11.721289306640625,3.0765492916107178,-8.676587104797363,0.49320554733276367
1728937952749299000,11.731298828125,3.201047658920288,-8.643068313598633,0.5817909836769104
1728937952759308800,11.741308837890625,3.292027235031128,-8.561665534973145,0.6368576288223267
1728937952769318700,11.751318603515625,3.426102638244629,-8.429984092712402,0.6584054827690125
1728937952779297800,11.7612978515625,3.49314022064209,-8.291120529174805,0.7086837291717529
1728937952789307600,11.7713076171875,3.5003228187561035,-8.245630264282227,0.7374141216278076
1728937952799286800,11.781286865234375,3.3901896476745605,-8.123526573181152,0.8140285611152649
1728937952809296600,11.791296630859375,3.35667085647583,-8.125920295715332,0.8786720037460327
1728937952819306200,11.80130615234375,3.292027235031128,-8.183381080627441,0.9481038451194763
1728937952829285600,11.81128564453125,3.3423056602478027,-8.38449478149414,1.0295066833496094
1728937952839264800,11.8212646484375,3.205836057662964,-8.65743350982666,1.0893617868423462
1728937952849244200,11.831244140625,3.1723172664642334,-9.117119789123535,1.115697979927063
1728937952859253800,11.841253662109375,3.0334534645080566,-9.526528358459473,1.1516109704971313
1728937952869233200,11.851233154296875,2.719813108444214,-9.979032516479492,1.1276689767837524
1728937952879242800,11.86124267578125,2.5067291259765625,-10.347740173339844,0.9241618514060974
1728937952889222100,11.87122216796875,2.4157495498657227,-10.584765434265137,0.7086837291717529
1728937952899201300,11.881201171875,2.564189910888672,-11.034875869750977,0.5626373887062073
1728937952909180700,11.8911806640625,2.8179752826690674,-11.587936401367188,0.5602431893348694
1728937952919159800,11.901159912109375,3.294421434402466,-12.270283699035645,0.3998316824436188
1728937952929139200,11.91113916015625,3.8594532012939453,-12.598289489746094,0.22026655077934265
1728937952939148800,11.921148681640625,4.19224739074707,-12.741941452026367,-0.09576806426048279
1728937952949158700,11.93115869140625,4.266467571258545,-13.0914945602417,-0.4644751250743866
1728937952959168500,11.94116845703125,4.039018154144287,-13.654131889343262,-0.8355764150619507
1728937952969147600,11.951147705078125,2.9496564865112305,-14.211980819702148,-1.3120225667953491
1728937952979157500,11.961157470703125,1.1803414821624756,-14.477737426757812,-1.8842366933822632
1728937952989167000,11.9711669921875,-0.2513911724090576,-14.573505401611328,-2.559401512145996
1728937952999177000,11.981177001953125,-0.2561795711517334,-14.247894287109375,-2.9759926795959473
1728937953009186800,11.991186767578125,0.7805097699165344,-13.187262535095215,-2.892195701599121
1728937953019196400,12.001196533203125,-0.10055647045373917,-12.674903869628906,-2.248155355453491
1728937953029206300,12.011206298828125,-2.408566951751709,-12.368446350097656,-1.0103530883789062
1728937953039216000,12.021216064453125,-3.5434184074401855,-12.339715957641602,0.19871874153614044
1728937953049225700,12.031225830078125,-3.6511576175689697,-12.20803451538086,0.7134721279144287
1728937953059235600,12.041235595703125,-4.153939723968506,-12.006921768188477,0.49320554733276367
1728937953069214700,12.051214599609375,-4.726154327392578,-11.690886497497559,-0.1364694982767105
1728937953079194000,12.061194091796875,-4.127603530883789,-11.348516464233398,-0.6847416758537292
1728937953089173200,12.07117333984375,-3.117250680923462,-11.058817863464355,-1.2665326595306396
1728937953099183000,12.08118310546875,-2.5689783096313477,-10.326191902160645,-1.3623007535934448
1728937953109192700,12.091192626953125,-1.9393033981323242,-9.859322547912598,-1.6184803247451782
1728937953119202600,12.10120263671875,-1.048660397529602,-9.081207275390625,-1.4939818382263184
1728937953129182000,12.111181884765625,-0.8331822156906128,-8.494627952575684,-1.4077905416488647
1728937953139191600,12.121191650390625,-0.790086567401886,-8.018181800842285,-1.2737152576446533
1728937953149201400,12.131201416015625,-0.7733271718025208,-7.711723804473877,-1.0869675874710083
1728937953159211000,12.1412109375,-0.7374141216278076,-7.304709434509277,-0.7948749661445618
1728937953169220900,12.151220947265625,-0.7038952708244324,-7.122750282287598,-0.6392518281936646
1728937953179230700,12.161230712890625,-0.6775590777397156,-7.113173484802246,-0.47165772318840027
1728937953189209900,12.1712099609375,-0.5578489899635315,-6.988674640655518,-0.31124621629714966
1728937953199189200,12.181189208984375,-0.3519476354122162,-7.038952827453613,-0.1867477297782898
1728937953209168400,12.19116845703125,-0.031124621629714966,-7.115567684173584,-0.08858546614646912
1728937953219178200,12.20117822265625,0.6368576288223267,-7.180211067199707,-0.05027823522686958
1728937953229157400,12.211157470703125,1.0845733880996704,-7.3693528175354,-0.040701430290937424
1728937953239136800,12.22113671875,1.2473790645599365,-7.515398979187012,0.05985504388809204
1728937953249146400,12.231146484375,1.4437036514282227,-7.762001991271973,0.15801730751991272
1728937953259156200,12.24115625,1.7741034030914307,-7.989450931549072,0.22505496442317963
1728937953269166000,12.251166015625,1.965639591217041,-8.288725852966309,0.28969839215278625
1728937953279175700,12.26117578125,2.33913516998291,-8.755595207214355,0.2825157940387726
1728937953289155000,12.271155029296875,2.6815059185028076,-9.081207275390625,0.2777273952960968
1728937953299164700,12.28116455078125,2.9065608978271484,-9.181763648986816,0.2944868206977844
1728937953309144000,12.29114404296875,3.07415509223938,-9.232041358947754,0.3711012601852417
1728937953319123200,12.301123291015625,3.3039982318878174,-9.188945770263672,0.38067805767059326
1728937953329102600,12.3111025390625,3.6128504276275635,-9.107542991638184,0.33039984107017517
1728937953339112200,12.3211123046875,3.732560396194458,-8.975862503051758,0.2825157940387726
1728937953349060900,12.331060791015625,3.9240965843200684,-8.757989883422852,0.30885201692581177
1728937953359070700,12.34107080078125,3.995922565460205,-8.554482460021973,0.3280056416988373
1728937953369050000,12.351050048828125,3.93367338180542,-8.303091049194336,0.3064578175544739
1728937953379059700,12.361059814453125,3.952826976776123,-8.159439086914062,0.21308395266532898
1728937953389008400,12.37100830078125,3.8115692138671875,-8.090007781982422,0.05027823522686958
1728937953399018200,12.381018310546875,3.6343982219696045,-8.192957878112793,-0.08379705995321274
1728937953408997600,12.39099755859375,3.406949043273926,-8.425195693969727,-0.26336219906806946
1728937953419007200,12.40100732421875,3.1483752727508545,-8.724471092224121,-0.45010992884635925
1728937953428986600,12.410986572265625,2.964021682739258,-8.999804496765137,-0.5985504388809204
1728937953438965800,12.4209658203125,2.782062292098999,-9.375694274902344,-0.7350199222564697
1728937953448945000,12.43094482421875,2.6144683361053467,-9.751583099365234,-0.7924807667732239
1728937953458924300,12.44092431640625,2.5067291259765625,-10.089165687561035,-0.7757213711738586
1728937953468903400,12.4509033203125,2.4372973442077637,-10.278307914733887,-0.6129156351089478
1728937953478913300,12.460913330078125,2.5689783096313477,-10.512939453125,-0.29209262132644653
1728937953488892400,12.470892333984375,2.6599581241607666,-10.864887237548828,-0.033518824726343155
1728937953498871800,12.480871826171875,3.181894063949585,-11.382035255432129,0.1388636976480484
1728937953508881700,12.490881591796875,3.5745432376861572,-11.765107154846191,0.21787235140800476
1728937953518891300,12.500891357421875,3.7445313930511475,-12.035652160644531,0.3280056416988373
1728937953528901000,12.510901123046875,3.6727054119110107,-12.277466773986816,0.586579442024231
1728937953538910700,12.52091064453125,3.780444383621216,-12.67011547088623,0.9433154463768005
1728937953548920600,12.530920654296875,3.8522706031799316,-12.904747009277344,1.3311761617660522
1728937953558930400,12.540930419921875,3.737348794937134,-12.911930084228516,1.656787633895874
1728937953568940000,12.55093994140625,3.292027235031128,-12.526463508605957,2.0685901641845703
1728937953578950000,12.560949951171875,3.1268274784088135,-11.949460983276367,2.5234885215759277
1728937953588959700,12.570959716796875,2.918531894683838,-11.307814598083496,2.8586769104003906
1728937953598969300,12.58096923828125,2.9233202934265137,-10.618284225463867,2.8419175148010254
1728937953608948700,12.59094873046875,2.2673089504241943,-9.943120002746582,2.099714994430542
1728937953618958300,12.600958251953125,1.2330138683319092,-9.682151794433594,0.9050082564353943
1728937953628937700,12.610937744140625,0.768538773059845,-9.761159896850586,-0.4692635238170624
1728937953638916900,12.620916748046875,0.021547814831137657,-10.129867553710938,-1.4245500564575195
1728937953648896300,12.630896240234375,-2.360682964324951,-10.141838073730469,-1.3479355573654175
1728937953658875400,12.64087548828125,-3.222595453262329,-10.110713958740234,-1.0534487962722778
1728937953668854800,12.650854736328125,-3.3710360527038574,-10.201693534851074,-0.5961562395095825
1728937953678864400,12.660864501953125,-3.3494882583618164,-10.290278434753418,-0.06703764945268631
1728937953688874200,12.670874267578125,-3.4356794357299805,-10.548852920532227,0.6129156351089478
1728937953698884000,12.680884033203125,-3.3423056602478027,-10.747570991516113,1.1180921792984009
1728937953708893700,12.690893798828125,-2.940079689025879,-10.285490036010742,1.5059528350830078
1728937953718903600,12.700903564453125,-2.784456491470337,-10.199298858642578,1.6112977266311646
1728937953728882700,12.710882568359375,-2.3750481605529785,-9.861717224121094,1.4460978507995605
1728937953738862000,12.720862060546875,-1.946485996246338,-9.528923034667969,1.2330138683319092
1728937953748841200,12.73084130859375,-1.6615760326385498,-9.148244857788086,0.9959878921508789
1728937953758851000,12.74085107421875,-1.335964560508728,-8.7268648147583,0.7829039692878723
1728937953768830200,12.750830322265625,-0.9385270476341248,-8.312667846679688,0.6775590777397156
1728937953778840000,12.760840087890625,-0.507570743560791,-7.829039573669434,0.5195417404174805
1728937953788819200,12.770819091796875,-0.16759411990642548,-7.544129371643066,0.3447650372982025
1728937953798798600,12.780798583984375,0,-7.331045627593994,0.1364694982767105
1728937953808808200,12.79080810546875,0.4572925269603729,-7.261613845825195,-0.0454898327589035
1728937953818818000,12.800818115234375,0.7805097699165344,-7.275979042053223,-0.05985504388809204
1728937953828797200,12.810797119140625,1.0965443849563599,-7.283161640167236,-0.031124621629714966
1728937953838776600,12.820776611328125,1.455674648284912,-7.4316020011901855,-0.011971008032560349
1728937953848755700,12.830755615234375,1.7980455160140991,-7.553706169128418,0.05027823522686958
1728937953858735000,12.840735107421875,2.099714994430542,-7.711723804473877,0.09576806426048279
1728937953868714200,12.85071435546875,2.3056161403656006,-7.934384346008301,0.14844051003456116
