time,seconds_elapsed,z,y,x
1728735883174145000,0.09914501953125,9.952696800231934,0.090979665517807,0.08379705995321274
1728735883184155000,0.10915478515625,9.945513725280762,0.10534487664699554,0.07422025501728058
1728735883194164500,0.11916455078125,9.940725326538086,0.10055647045373917,0.07182604819536209
1728735883204143900,0.129143798828125,9.952696800231934,0.10773907601833344,0.07182604819536209
1728735883214123000,0.139123046875,9.931148529052734,0.0933738648891449,0.08379705995321274
1728735883224102400,0.149102294921875,9.938331604003906,0.10055647045373917,0.090979665517807
1728735883234081500,0.15908154296875,9.93354320526123,0.10534487664699554,0.090979665517807
1728735883244091400,0.16909130859375,9.940725326538086,0.10055647045373917,0.08379705995321274
1728735883254070500,0.179070556640625,9.940725326538086,0.09816227108240128,0.07900865375995636
1728735883264080400,0.189080322265625,9.921571731567383,0.08858546614646912,0.08379705995321274
1728735883274059500,0.1990595703125,9.945513725280762,0.09576806426048279,0.07182604819536209
1728735883284039000,0.209038818359375,9.947908401489258,0.10773907601833344,0.08379705995321274
1728735883294018000,0.21901806640625,9.93354320526123,0.08619125932455063,0.08858546614646912
1728735883303997400,0.22899755859375,9.93354320526123,0.08858546614646912,0.08140286058187485
1728735883313976600,0.2389765625,9.947908401489258,0.09816227108240128,0.08379705995321274
1728735883323986400,0.248986328125,9.940725326538086,0.10295066982507706,0.07900865375995636
1728735883333965600,0.258965576171875,9.93354320526123,0.090979665517807,0.08140286058187485
1728735883343945000,0.268945068359375,9.938331604003906,0.09816227108240128,0.090979665517807
1728735883353924000,0.278924072265625,9.945513725280762,0.11013327538967133,0.07182604819536209
1728735883363903200,0.2889033203125,9.947908401489258,0.09816227108240128,0.08379705995321274
1728735883373882600,0.298882568359375,9.947908401489258,0.09576806426048279,0.08140286058187485
1728735883383892500,0.308892578125,9.931148529052734,0.09576806426048279,0.07661445438861847
1728735883393871600,0.31887158203125,9.938331604003906,0.090979665517807,0.090979665517807
1728735883403881500,0.328881591796875,9.943120002746582,0.10055647045373917,0.07182604819536209
1728735883413860600,0.338860595703125,9.952696800231934,0.08379705995321274,0.07900865375995636
1728735883423840000,0.348840087890625,9.938331604003906,0.08619125932455063,0.06464344263076782
1728735883433819100,0.358819091796875,9.93593692779541,0.11013327538967133,0.08140286058187485
1728735883443798300,0.36879833984375,9.943120002746582,0.10534487664699554,0.08140286058187485
1728735883453777700,0.378777587890625,9.93593692779541,0.09576806426048279,0.08379705995321274
1728735883463787300,0.388787353515625,9.93593692779541,0.0933738648891449,0.08140286058187485
1728735883473797000,0.398797119140625,9.938331604003906,0.10055647045373917,0.08140286058187485
1728735883483807000,0.408806884765625,9.93593692779541,0.090979665517807,0.07182604819536209
1728735883493816600,0.418816650390625,9.943120002746582,0.09816227108240128,0.08619125932455063
1728735883503826400,0.428826416015625,9.943120002746582,0.09576806426048279,0.08858546614646912
1728735883513805800,0.438805908203125,9.943120002746582,0.10534487664699554,0.07900865375995636
1728735883523785000,0.448784912109375,9.938331604003906,0.10295066982507706,0.08858546614646912
1728735883533794800,0.458794921875,9.945513725280762,0.09816227108240128,0.08858546614646912
1728735883543804400,0.468804443359375,9.947908401489258,0.09816227108240128,0.08140286058187485
1728735883553753000,0.478753173828125,9.93354320526123,0.10055647045373917,0.08140286058187485
1728735883563763000,0.488762939453125,9.945513725280762,0.09576806426048279,0.0694318488240242
1728735883573772800,0.498772705078125,9.943120002746582,0.09816227108240128,0.07661445438861847
1728735883583782400,0.508782470703125,9.945513725280762,0.09576806426048279,0.07422025501728058
1728735883593761800,0.51876171875,9.962273597717285,0.0933738648891449,0.08140286058187485
1728735883603741000,0.528740966796875,9.923966407775879,0.0933738648891449,0.08858546614646912
1728735883613750800,0.538750732421875,9.947908401489258,0.08140286058187485,0.08858546614646912
1728735883623760600,0.5487607421875,9.940725326538086,0.0933738648891449,0.07900865375995636
1728735883633739800,0.55873974609375,9.916783332824707,0.09816227108240128,0.08858546614646912
1728735883643749600,0.56874951171875,9.952696800231934,0.0933738648891449,0.07900865375995636
1728735883653728800,0.578728759765625,9.928754806518555,0.10534487664699554,0.07422025501728058
1728735883663708200,0.588708251953125,9.945513725280762,0.10534487664699554,0.07661445438861847
1728735883673687300,0.598687255859375,9.947908401489258,0.0933738648891449,0.07900865375995636
1728735883683697200,0.608697265625,9.938331604003906,0.09816227108240128,0.08379705995321274
1728735883693676300,0.61867626953125,9.962273597717285,0.10055647045373917,0.09576806426048279
1728735883703655400,0.628655517578125,9.950302124023438,0.10534487664699554,0.08619125932455063
1728735883713634800,0.638634765625,9.931148529052734,0.0933738648891449,0.07182604819536209
1728735883723644700,0.648644775390625,9.945513725280762,0.0933738648891449,0.07900865375995636
1728735883733623800,0.658623779296875,9.928754806518555,0.10534487664699554,0.06224924325942993
1728735883743603000,0.66860302734375,9.943120002746582,0.10534487664699554,0.08379705995321274
1728735883753582300,0.678582275390625,9.945513725280762,0.10534487664699554,0.07900865375995636
1728735883763561500,0.6885615234375,9.943120002746582,0.090979665517807,0.07900865375995636
1728735883773540900,0.698540771484375,9.947908401489258,0.10055647045373917,0.07661445438861847
1728735883783520000,0.70852001953125,9.940725326538086,0.09816227108240128,0.08858546614646912
1728735883793499400,0.71849951171875,9.950302124023438,0.090979665517807,0.07422025501728058
1728735883803509000,0.728509033203125,9.945513725280762,0.09816227108240128,0.07900865375995636
1728735883813488400,0.73848828125,9.952696800231934,0.08858546614646912,0.07900865375995636
1728735883823467500,0.748467529296875,9.959878921508789,0.08858546614646912,0.08858546614646912
1728735883833447000,0.758447021484375,9.940725326538086,0.10295066982507706,0.08379705995321274
1728735883843456500,0.76845654296875,9.945513725280762,0.09816227108240128,0.08140286058187485
1728735883853436000,0.778435791015625,9.95748519897461,0.10295066982507706,0.08858546614646912
1728735883863415000,0.7884150390625,9.928754806518555,0.09576806426048279,0.07900865375995636
1728735883873394400,0.79839453125,9.952696800231934,0.09816227108240128,0.07661445438861847
1728735883883373600,0.80837353515625,9.93354320526123,0.0933738648891449,0.08379705995321274
1728735883893383400,0.818383544921875,9.955090522766113,0.10295066982507706,0.07661445438861847
1728735883903393000,0.82839306640625,9.938331604003906,0.09816227108240128,0.08379705995321274
1728735883913372400,0.838372314453125,9.943120002746582,0.0933738648891449,0.07900865375995636
1728735883923382000,0.848382080078125,9.952696800231934,0.09576806426048279,0.08140286058187485
1728735883933361400,0.858361328125,9.943120002746582,0.0933738648891449,0.0933738648891449
1728735883943340500,0.868340576171875,9.943120002746582,0.10534487664699554,0.07422025501728058
1728735883953320000,0.87831982421875,9.940725326538086,0.0933738648891449,0.08379705995321274
1728735883963299000,0.888299072265625,9.931148529052734,0.10055647045373917,0.07661445438861847
1728735883973309000,0.898308837890625,9.947908401489258,0.09816227108240128,0.07422025501728058
1728735883983318500,0.908318603515625,9.952696800231934,0.10773907601833344,0.06703764945268631
1728735883993298000,0.9182978515625,9.945513725280762,0.090979665517807,0.08619125932455063
1728735884003277000,0.928277099609375,9.950302124023438,0.08858546614646912,0.07422025501728058
1728735884013287000,0.938286865234375,9.93354320526123,0.090979665517807,0.08858546614646912
1728735884023266000,0.94826611328125,9.947908401489258,0.0933738648891449,0.08858546614646912
1728735884033245400,0.958245361328125,9.952696800231934,0.0933738648891449,0.08619125932455063
1728735884043255000,0.968255126953125,9.945513725280762,0.07422025501728058,0.08379705995321274
1728735884053234400,0.978234375,9.950302124023438,0.08858546614646912,0.08140286058187485
1728735884063213600,0.988213623046875,9.947908401489258,0.0933738648891449,0.07900865375995636
1728735884073193000,0.99819287109375,9.952696800231934,0.09816227108240128,0.090979665517807
1728735884083202600,1.00820263671875,9.938331604003906,0.10295066982507706,0.07900865375995636
1728735884093182000,1.018181884765625,9.940725326538086,0.0933738648891449,0.08619125932455063
1728735884103161000,1.0281611328125,9.962273597717285,0.0933738648891449,0.0933738648891449
1728735884113140500,1.038140380859375,9.93354320526123,0.0933738648891449,0.090979665517807
1728735884123150000,1.048150146484375,9.955090522766113,0.08379705995321274,0.0694318488240242
1728735884133129500,1.05812939453125,9.931148529052734,0.10534487664699554,0.07422025501728058
1728735884143108600,1.068108642578125,9.938331604003906,0.09576806426048279,0.0694318488240242
1728735884153088000,1.078087890625,9.945513725280762,0.11013327538967133,0.08140286058187485
1728735884163067100,1.088067138671875,9.921571731567383,0.09576806426048279,0.08379705995321274
1728735884173046500,1.098046630859375,9.971850395202637,0.10773907601833344,0.08140286058187485
1728735884183025700,1.108025634765625,10.053253173828125,0.10534487664699554,0.0694318488240242
1728735884193004800,1.1180048828125,9.971850395202637,0.11013327538967133,0.08858546614646912
1728735884202984200,1.127984130859375,9.950302124023438,0.09816227108240128,0.08140286058187485
1728735884212963300,1.13796337890625,9.971850395202637,0.08619125932455063,0.07422025501728058
1728735884222942700,1.147942626953125,9.943120002746582,0.0933738648891449,0.07422025501728058
1728735884232921900,1.157921875,9.947908401489258,0.09576806426048279,0.08379705995321274
1728735884242901200,1.1679013671875,9.928754806518555,0.08379705995321274,0.08140286058187485
1728735884252880400,1.17788037109375,9.940725326538086,0.09816227108240128,0.07661445438861847
1728735884262859800,1.18785986328125,9.95748519897461,0.09816227108240128,0.08379705995321274
1728735884272839000,1.1978388671875,9.947908401489258,0.10055647045373917,0.07422025501728058
1728735884282848800,1.207848876953125,9.931148529052734,0.090979665517807,0.08379705995321274
1728735884292828000,1.217827880859375,9.962273597717285,0.09576806426048279,0.07182604819536209
1728735884302807000,1.22780712890625,9.928754806518555,0.10295066982507706,0.06703764945268631
1728735884312786400,1.237786376953125,9.971850395202637,0.09576806426048279,0.0694318488240242
1728735884322765600,1.247765625,9.923966407775879,0.08858546614646912,0.08619125932455063
1728735884332775400,1.257775390625,9.962273597717285,0.090979665517807,0.08379705995321274
1728735884342785300,1.267785400390625,9.952696800231934,0.10534487664699554,0.07661445438861847
1728735884352734000,1.27773388671875,9.955090522766113,0.10055647045373917,0.07900865375995636
1728735884362743800,1.287743896484375,9.93593692779541,0.07422025501728058,0.08858546614646912
1728735884372753400,1.29775341796875,9.940725326538086,0.10055647045373917,0.07182604819536209
1728735884382732800,1.30773291015625,9.955090522766113,0.10773907601833344,0.08858546614646912
1728735884392742400,1.317742431640625,9.967061996459961,0.09576806426048279,0.07900865375995636
1728735884402752300,1.327752197265625,9.943120002746582,0.0933738648891449,0.090979665517807
1728735884412762000,1.33776220703125,9.955090522766113,0.09576806426048279,0.07900865375995636
1728735884422741200,1.3477412109375,9.962273597717285,0.09816227108240128,0.08140286058187485
1728735884432751000,1.357751220703125,9.955090522766113,0.11013327538967133,0.08140286058187485
1728735884442760700,1.3677607421875,9.947908401489258,0.090979665517807,0.08858546614646912
1728735884452770600,1.3777705078125,9.945513725280762,0.10295066982507706,0.08140286058187485
1728735884462749700,1.387749755859375,9.964667320251465,0.10773907601833344,0.07661445438861847
1728735884472759600,1.397759521484375,9.950302124023438,0.0933738648891449,0.08379705995321274
1728735884482769400,1.407769287109375,9.952696800231934,0.09816227108240128,0.07900865375995636
1728735884492779000,1.417779052734375,9.955090522766113,0.09576806426048279,0.07422025501728058
1728735884502758400,1.42775830078125,9.971850395202637,0.10295066982507706,0.08379705995321274
1728735884512768000,1.43776806640625,9.955090522766113,0.09816227108240128,0.07422025501728058
1728735884522777900,1.44777783203125,9.943120002746582,0.0933738648891449,0.07182604819536209
1728735884532787700,1.45778759765625,9.940725326538086,0.09576806426048279,0.08140286058187485
1728735884542766800,1.467766845703125,9.952696800231934,0.09816227108240128,0.090979665517807
1728735884552746200,1.477746337890625,9.940725326538086,0.09816227108240128,0.07422025501728058
1728735884562755800,1.487755859375,9.952696800231934,0.090979665517807,0.08379705995321274
1728735884572765700,1.497765625,9.947908401489258,0.09576806426048279,0.07900865375995636
1728735884582775600,1.507775634765625,9.950302124023438,0.09576806426048279,0.08379705995321274
1728735884592754700,1.517754638671875,9.940725326538086,0.10055647045373917,0.07661445438861847
1728735884602733800,1.52773388671875,9.945513725280762,0.10534487664699554,0.08379705995321274
1728735884612743700,1.53774365234375,9.93593692779541,0.0933738648891449,0.08379705995321274
1728735884622753500,1.54775341796875,9.945513725280762,0.10055647045373917,0.08379705995321274
1728735884632732700,1.557732666015625,9.945513725280762,0.09816227108240128,0.08619125932455063
1728735884642712000,1.567712158203125,9.950302124023438,0.09816227108240128,0.08619125932455063
1728735884652721700,1.5777216796875,9.93354320526123,0.10295066982507706,0.07661445438861847
1728735884662701000,1.587701171875,9.955090522766113,0.10534487664699554,0.0933738648891449
1728735884672680200,1.59768017578125,9.959878921508789,0.10295066982507706,0.08379705995321274
1728735884682690000,1.60768994140625,9.947908401489258,0.09576806426048279,0.07900865375995636
1728735884692669200,1.617669189453125,9.955090522766113,0.11013327538967133,0.07422025501728058
1728735884702648600,1.627648681640625,9.943120002746582,0.090979665517807,0.0933738648891449
1728735884712627700,1.637627685546875,9.96945571899414,0.090979665517807,0.07900865375995636
1728735884722606800,1.64760693359375,9.955090522766113,0.10773907601833344,0.07422025501728058
1728735884732586200,1.657586181640625,9.955090522766113,0.090979665517807,0.090979665517807
1728735884742596000,1.66759619140625,9.945513725280762,0.10055647045373917,0.0933738648891449
1728735884752575200,1.6775751953125,9.947908401489258,0.10295066982507706,0.08140286058187485
1728735884762554400,1.687554443359375,9.940725326538086,0.090979665517807,0.08379705995321274
1728735884772533800,1.69753369140625,9.952696800231934,0.08140286058187485,0.08140286058187485
1728735884782543600,1.707543701171875,9.940725326538086,0.11013327538967133,0.08140286058187485
1728735884792553200,1.71755322265625,9.959878921508789,0.11013327538967133,0.08379705995321274
1728735884802563000,1.72756298828125,9.938331604003906,0.0933738648891449,0.08140286058187485
1728735884812511700,1.73751171875,9.952696800231934,0.090979665517807,0.08140286058187485
1728735884822521600,1.747521484375,9.967061996459961,0.090979665517807,0.08379705995321274
1728735884832531200,1.75753125,9.95748519897461,0.0933738648891449,0.07900865375995636
1728735884842541000,1.767541015625,9.952696800231934,0.08619125932455063,0.08379705995321274
1728735884852551000,1.777551025390625,9.950302124023438,0.10055647045373917,0.090979665517807
1728735884862530000,1.787530029296875,9.955090522766113,0.09816227108240128,0.08619125932455063
1728735884872540000,1.797539794921875,9.955090522766113,0.0933738648891449,0.07900865375995636
1728735884882549500,1.807549560546875,9.955090522766113,0.09576806426048279,0.08379705995321274
1728735884892498400,1.81749853515625,9.952696800231934,0.09576806426048279,0.07900865375995636
1728735884902508000,1.827508056640625,9.95748519897461,0.11013327538967133,0.07900865375995636
1728735884912518000,1.837517822265625,9.947908401489258,0.09576806426048279,0.07182604819536209
1728735884922527700,1.84752783203125,9.943120002746582,0.08858546614646912,0.08379705995321274
1728735884932507000,1.8575068359375,9.959878921508789,0.10055647045373917,0.08858546614646912
1728735884942516700,1.867516845703125,9.938331604003906,0.0933738648891449,0.07422025501728058
1728735884952526300,1.8775263671875,9.959878921508789,0.09816227108240128,0.08619125932455063
1728735884962536200,1.8875361328125,9.950302124023438,0.090979665517807,0.08619125932455063
1728735884972546000,1.897546142578125,9.952696800231934,0.090979665517807,0.08858546614646912
1728735884982525200,1.907525146484375,9.947908401489258,0.10055647045373917,0.08140286058187485
1728735884992535000,1.91753515625,9.943120002746582,0.09576806426048279,0.07900865375995636
1728735885002544600,1.927544677734375,9.95748519897461,0.090979665517807,0.08140286058187485
1728735885012493600,1.93749365234375,9.950302124023438,0.10055647045373917,0.07900865375995636
1728735885022503200,1.947503173828125,9.962273597717285,0.10055647045373917,0.08858546614646912
1728735885032513000,1.957512939453125,9.962273597717285,0.09816227108240128,0.07900865375995636
1728735885042522600,1.967522705078125,9.947908401489258,0.0933738648891449,0.08140286058187485
1728735885052532500,1.977532470703125,9.940725326538086,0.090979665517807,0.08619125932455063
1728735885062511900,1.987511962890625,9.955090522766113,0.1149216815829277,0.07900865375995636
1728735885072521500,1.997521484375,9.955090522766113,0.10055647045373917,0.090979665517807
1728735885082531300,2.00753125,9.940725326538086,0.09816227108240128,0.07422025501728058
1728735885092541000,2.017541015625,9.947908401489258,0.08379705995321274,0.0933738648891449
1728735885102550800,2.02755078125,9.950302124023438,0.09816227108240128,0.07900865375995636
1728735885112530200,2.0375302734375,9.950302124023438,0.09576806426048279,0.07422025501728058
1728735885122509300,2.04750927734375,9.955090522766113,0.0933738648891449,0.08140286058187485
1728735885132519200,2.057519287109375,9.940725326538086,0.090979665517807,0.08379705995321274
1728735885142498300,2.067498291015625,9.95748519897461,0.09576806426048279,0.07661445438861847
1728735885152477700,2.077477783203125,9.943120002746582,0.09576806426048279,0.090979665517807
1728735885162456800,2.087456787109375,9.955090522766113,0.0933738648891449,0.07661445438861847
1728735885172466700,2.097466796875,9.952696800231934,0.0933738648891449,0.07661445438861847
1728735885182445800,2.10744580078125,9.950302124023438,0.10055647045373917,0.07661445438861847
1728735885192425000,2.117425048828125,9.950302124023438,0.09576806426048279,0.07900865375995636
1728735885202434800,2.127434814453125,9.959878921508789,0.09816227108240128,0.07422025501728058
1728735885212414200,2.137414306640625,9.943120002746582,0.0933738648891449,0.08379705995321274
1728735885222393300,2.147393310546875,9.945513725280762,0.10055647045373917,0.07900865375995636
1728735885232372500,2.15737255859375,9.947908401489258,0.0933738648891449,0.08379705995321274
1728735885242351900,2.167351806640625,9.950302124023438,0.0933738648891449,0.07900865375995636
1728735885252331000,2.1773310546875,9.943120002746582,0.10295066982507706,0.08619125932455063
1728735885262310400,2.187310302734375,9.955090522766113,0.10055647045373917,0.07422025501728058
1728735885272320000,2.197320068359375,9.955090522766113,0.090979665517807,0.08379705995321274
1728735885282299400,2.20729931640625,9.945513725280762,0.0933738648891449,0.07900865375995636
1728735885292278500,2.217278564453125,9.95748519897461,0.10295066982507706,0.08140286058187485
1728735885302288400,2.227288330078125,9.947908401489258,0.0933738648891449,0.07900865375995636
1728735885312298200,2.23729833984375,9.943120002746582,0.09576806426048279,0.07661445438861847
1728735885322277400,2.24727734375,9.955090522766113,0.10295066982507706,0.07900865375995636
1728735885332256500,2.257256591796875,9.952696800231934,0.0933738648891449,0.08619125932455063
1728735885342266400,2.267266357421875,9.952696800231934,0.10773907601833344,0.08619125932455063
1728735885352245800,2.277245849609375,9.95748519897461,0.09576806426048279,0.08379705995321274
1728735885362225000,2.287224853515625,9.952696800231934,0.09576806426048279,0.07661445438861847
1728735885372204000,2.2972041015625,9.947908401489258,0.10055647045373917,0.07900865375995636
1728735885382214000,2.3072138671875,9.945513725280762,0.09576806426048279,0.08619125932455063
1728735885392193000,2.317193115234375,9.952696800231934,0.09576806426048279,0.07422025501728058
1728735885402172400,2.32717236328125,9.938331604003906,0.09576806426048279,0.08140286058187485
1728735885412151600,2.337151611328125,9.947908401489258,0.09576806426048279,0.07661445438861847
1728735885422161400,2.347161376953125,9.959878921508789,0.11013327538967133,0.08619125932455063
1728735885432171300,2.357171142578125,9.955090522766113,0.0933738648891449,0.07422025501728058
1728735885442180900,2.367180908203125,9.940725326538086,0.0933738648891449,0.07661445438861847
1728735885452190700,2.377190673828125,9.95748519897461,0.09576806426048279,0.08619125932455063
1728735885462169900,2.387169921875,9.95748519897461,0.09816227108240128,0.08858546614646912
1728735885472210200,2.397210205078125,9.967061996459961,0.10295066982507706,0.08619125932455063
1728735885482189600,2.407189453125,9.964667320251465,0.09816227108240128,0.07422025501728058
1728735885492199200,2.41719921875,9.959878921508789,0.08619125932455063,0.08140286058187485
1728735885502209000,2.427208984375,9.959878921508789,0.10055647045373917,0.08858546614646912
1728735885512188200,2.437188232421875,9.962273597717285,0.090979665517807,0.07422025501728058
1728735885522167600,2.44716748046875,9.943120002746582,0.090979665517807,0.07422025501728058
1728735885532177400,2.457177490234375,9.955090522766113,0.08858546614646912,0.08619125932455063
1728735885542156500,2.467156494140625,9.959878921508789,0.10295066982507706,0.08379705995321274
1728735885552135700,2.4771357421875,9.950302124023438,0.09816227108240128,0.08619125932455063
1728735885562115000,2.487114990234375,9.945513725280762,0.09576806426048279,0.08619125932455063
1728735885572124700,2.497124755859375,9.955090522766113,0.0933738648891449,0.090979665517807
1728735885582104000,2.50710400390625,9.952696800231934,0.10055647045373917,0.08140286058187485
1728735885592083200,2.517083251953125,9.955090522766113,0.09576806426048279,0.07900865375995636
1728735885602062600,2.5270625,9.955090522766113,0.0933738648891449,0.07182604819536209
1728735885612072200,2.537072265625,9.945513725280762,0.10295066982507706,0.07900865375995636
1728735885622051600,2.547051513671875,9.947908401489258,0.09576806426048279,0.08140286058187485
1728735885632030700,2.55703076171875,9.947908401489258,0.0933738648891449,0.07422025501728058
1728735885642010000,2.567010009765625,9.947908401489258,0.08619125932455063,0.07422025501728058
1728735885652019700,2.577019775390625,9.952696800231934,0.09576806426048279,0.07900865375995636
1728735885661999000,2.5869990234375,9.962273597717285,0.11013327538967133,0.07900865375995636
1728735885672008700,2.5970087890625,9.940725326538086,0.09816227108240128,0.07422025501728058
1728735885682018600,2.6070185546875,9.947908401489258,0.10055647045373917,0.08858546614646912
1728735885692028400,2.6170283203125,9.947908401489258,0.09576806426048279,0.08858546614646912
1728735885702007600,2.627007568359375,9.959878921508789,0.10534487664699554,0.08379705995321274
1728735885712017400,2.637017333984375,9.95748519897461,0.09816227108240128,0.090979665517807
1728735885722027000,2.647027099609375,9.950302124023438,0.08379705995321274,0.07900865375995636
1728735885731976000,2.656975830078125,9.952696800231934,0.09576806426048279,0.07422025501728058
1728735885741985500,2.666985595703125,9.967061996459961,0.10055647045373917,0.0933738648891449
1728735885751995400,2.676995361328125,9.945513725280762,0.090979665517807,0.08379705995321274
1728735885762005200,2.687005126953125,9.947908401489258,0.08619125932455063,0.08379705995321274
1728735885772014800,2.697014892578125,9.947908401489258,0.090979665517807,0.08619125932455063
1728735885782024700,2.707024658203125,9.967061996459961,0.09816227108240128,0.07900865375995636
1728735885792003800,2.71700390625,9.967061996459961,0.10055647045373917,0.08140286058187485
1728735885801983200,2.726983154296875,9.959878921508789,0.10055647045373917,0.08379705995321274
1728735885811992800,2.736992919921875,9.95748519897461,0.0933738648891449,0.07900865375995636
1728735885822002700,2.747002685546875,9.947908401489258,0.10534487664699554,0.08379705995321274
1728735885831982000,2.756982177734375,9.947908401489258,0.0933738648891449,0.07661445438861847
1728735885841961200,2.766961181640625,10.290278434753418,0.09576806426048279,0.047884032130241394
1728735885851971000,2.77697119140625,9.9000244140625,0.09576806426048279,0.07661445438861847
1728735885861950200,2.7869501953125,9.998186111450195,0.090979665517807,0.08379705995321274
1728735885871929600,2.7969296875,9.986215591430664,0.11013327538967133,0.08140286058187485
1728735885881908700,2.80690869140625,9.931148529052734,0.10055647045373917,0.09576806426048279
1728735885891918600,2.816918701171875,9.93354320526123,0.10055647045373917,0.08858546614646912
1728735885901897700,2.826897705078125,9.96945571899414,0.09816227108240128,0.07422025501728058
1728735885911876900,2.836876953125,9.947908401489258,0.09816227108240128,0.07422025501728058
1728735885921856300,2.846856201171875,9.945513725280762,0.10055647045373917,0.07661445438861847
1728735885931866000,2.8568662109375,9.947908401489258,0.10295066982507706,0.07900865375995636
1728735885941875700,2.866875732421875,9.959878921508789,0.10773907601833344,0.090979665517807
1728735885951855000,2.876855224609375,9.964667320251465,0.090979665517807,0.07900865375995636
1728735885961864700,2.88686474609375,9.959878921508789,0.0933738648891449,0.08379705995321274
1728735885971844000,2.896843994140625,9.943120002746582,0.10055647045373917,0.07900865375995636
1728735885981823200,2.9068232421875,9.952696800231934,0.09816227108240128,0.0933738648891449
1728735885991802600,2.916802734375,9.938331604003906,0.10055647045373917,0.08619125932455063
1728735886001812200,2.926812255859375,9.962273597717285,0.09816227108240128,0.08619125932455063
1728735886011791600,2.93679150390625,9.962273597717285,0.09816227108240128,0.08619125932455063
1728735886021770800,2.946770751953125,9.945513725280762,0.10773907601833344,0.090979665517807
1728735886031750100,2.956750244140625,9.959878921508789,0.10534487664699554,0.08858546614646912
1728735886041729300,2.966729248046875,9.947908401489258,0.10055647045373917,0.07422025501728058
1728735886051708400,2.97670849609375,9.955090522766113,0.0933738648891449,0.08619125932455063
1728735886061687800,2.986687744140625,9.96945571899414,0.0933738648891449,0.08619125932455063
1728735886071667000,2.9966669921875,9.952696800231934,0.09816227108240128,0.07900865375995636
1728735886081646300,3.006646240234375,9.950302124023438,0.09576806426048279,0.08140286058187485
1728735886091625500,3.01662548828125,9.962273597717285,0.10534487664699554,0.07900865375995636
1728735886101604900,3.02660498046875,9.947908401489258,0.09816227108240128,0.08858546614646912
1728735886111584000,3.036583984375,9.945513725280762,0.09576806426048279,0.08140286058187485
1728735886121563400,3.0465634765625,9.943120002746582,0.090979665517807,0.0694318488240242
1728735886131542500,3.05654248046875,9.950302124023438,0.09816227108240128,0.07900865375995636
1728735886141552400,3.066552490234375,9.938331604003906,0.10295066982507706,0.08619125932455063
1728735886151531500,3.076531494140625,9.945513725280762,0.10773907601833344,0.07661445438861847
1728735886161510700,3.0865107421875,9.938331604003906,0.08858546614646912,0.07182604819536209
1728735886171490000,3.096489990234375,9.959878921508789,0.09816227108240128,0.07900865375995636
1728735886181469200,3.10646923828125,9.955090522766113,0.10055647045373917,0.07900865375995636
1728735886191448600,3.116448486328125,9.950302124023438,0.090979665517807,0.08858546614646912
1728735886201427700,3.126427734375,9.947908401489258,0.10055647045373917,0.07900865375995636
1728735886211407000,3.136406982421875,9.955090522766113,0.10295066982507706,0.08619125932455063
1728735886221386200,3.14638623046875,9.940725326538086,0.08858546614646912,0.07661445438861847
1728735886231365600,3.15636572265625,9.952696800231934,0.08858546614646912,0.07900865375995636
1728735886241344800,3.1663447265625,9.950302124023438,0.090979665517807,0.08379705995321274
1728735886251354600,3.176354736328125,9.928754806518555,0.09816227108240128,0.07900865375995636
1728735886261333800,3.186333740234375,9.974244117736816,0.10534487664699554,0.08619125932455063
1728735886271313000,3.19631298828125,9.945513725280762,0.09576806426048279,0.08619125932455063
1728735886281322800,3.20632275390625,9.955090522766113,0.10534487664699554,0.07900865375995636
1728735886291332600,3.21633251953125,9.955090522766113,0.0933738648891449,0.07900865375995636
1728735886301311700,3.226311767578125,9.938331604003906,0.0933738648891449,0.08379705995321274
1728735886311321600,3.236321533203125,9.959878921508789,0.09816227108240128,0.08379705995321274
1728735886321331500,3.24633154296875,9.945513725280762,0.08858546614646912,0.07422025501728058
1728735886331341000,3.256341064453125,9.945513725280762,0.090979665517807,0.07900865375995636
1728735886341320400,3.266320556640625,9.950302124023438,0.0933738648891449,0.08379705995321274
1728735886351330000,3.276330078125,9.945513725280762,0.10773907601833344,0.08140286058187485
1728735886361340000,3.28633984375,9.945513725280762,0.09576806426048279,0.07661445438861847
1728735886371349800,3.296349853515625,9.959878921508789,0.0933738648891449,0.0694318488240242
1728735886381329000,3.306328857421875,9.945513725280762,0.0933738648891449,0.07661445438861847
1728735886391338800,3.3163388671875,9.940725326538086,0.09816227108240128,0.09576806426048279
1728735886401348400,3.326348388671875,9.959878921508789,0.09816227108240128,0.07661445438861847
1728735886411297300,3.33629736328125,9.945513725280762,0.0933738648891449,0.07900865375995636
1728735886421307000,3.346306884765625,9.950302124023438,0.09816227108240128,0.08619125932455063
1728735886431286300,3.356286376953125,9.947908401489258,0.09816227108240128,0.07182604819536209
1728735886441265400,3.366265380859375,9.952696800231934,0.09576806426048279,0.08379705995321274
1728735886451244500,3.37624462890625,9.950302124023438,0.0933738648891449,0.07900865375995636
1728735886461254400,3.38625439453125,9.945513725280762,0.09816227108240128,0.08140286058187485
1728735886471233800,3.39623388671875,9.952696800231934,0.09816227108240128,0.08379705995321274
1728735886481213000,3.406212890625,9.931148529052734,0.10295066982507706,0.08379705995321274
1728735886491192000,3.416192138671875,9.947908401489258,0.090979665517807,0.08619125932455063
1728735886501171500,3.42617138671875,9.967061996459961,0.10055647045373917,0.07182604819536209
1728735886511150600,3.436150634765625,9.962273597717285,0.09816227108240128,0.07661445438861847
1728735886521130000,3.4461298828125,9.943120002746582,0.08619125932455063,0.090979665517807
1728735886531139600,3.4561396484375,9.945513725280762,0.09816227108240128,0.08140286058187485
1728735886541149400,3.4661494140625,9.955090522766113,0.09816227108240128,0.08379705995321274
1728735886551128600,3.476128662109375,9.945513725280762,0.0933738648891449,0.07661445438861847
1728735886561108000,3.48610791015625,9.943120002746582,0.090979665517807,0.07182604819536209
1728735886571117800,3.496117919921875,9.959878921508789,0.09816227108240128,0.07900865375995636
1728735886581097000,3.506096923828125,9.940725326538086,0.0933738648891449,0.08379705995321274
1728735886591106800,3.51610693359375,9.943120002746582,0.090979665517807,0.07661445438861847
1728735886601116400,3.526116455078125,9.940725326538086,0.09816227108240128,0.07661445438861847
1728735886611065300,3.5360654296875,9.955090522766113,0.10055647045373917,0.07661445438861847
1728735886621075000,3.546074951171875,9.971850395202637,0.11971008777618408,0.08140286058187485
1728735886631084800,3.556084716796875,9.947908401489258,0.10295066982507706,0.08379705995321274
1728735886641094400,3.566094482421875,9.945513725280762,0.0933738648891449,0.07900865375995636
1728735886651073800,3.57607373046875,9.950302124023438,0.0933738648891449,0.07900865375995636
1728735886661083600,3.586083740234375,9.950302124023438,0.08858546614646912,0.08140286058187485
1728735886671062800,3.596062744140625,9.952696800231934,0.09816227108240128,0.0694318488240242
1728735886681042000,3.6060419921875,9.947908401489258,0.0933738648891449,0.0933738648891449
1728735886691021300,3.616021240234375,9.950302124023438,0.09576806426048279,0.08379705995321274
1728735886701000400,3.62600048828125,9.945513725280762,0.10295066982507706,0.08379705995321274
1728735886710979800,3.635979736328125,9.947908401489258,0.090979665517807,0.07900865375995636
1728735886720989400,3.645989501953125,9.959878921508789,0.090979665517807,0.07182604819536209
1728735886730968800,3.65596875,9.943120002746582,0.09816227108240128,0.08140286058187485
1728735886740948000,3.665947998046875,9.955090522766113,0.10295066982507706,0.08619125932455063
1728735886750927400,3.67592724609375,9.955090522766113,0.09576806426048279,0.08140286058187485
1728735886760906500,3.685906494140625,9.959878921508789,0.10295066982507706,0.07422025501728058
1728735886770916400,3.695916259765625,9.940725326538086,0.09816227108240128,0.07661445438861847
1728735886780926000,3.705926025390625,9.947908401489258,0.10295066982507706,0.08379705995321274
1728735886790905300,3.7159052734375,9.945513725280762,0.09816227108240128,0.08379705995321274
1728735886800884500,3.725884521484375,9.955090522766113,0.09816227108240128,0.0933738648891449
1728735886810894300,3.735894287109375,9.952696800231934,0.10295066982507706,0.07900865375995636
1728735886820873500,3.74587353515625,9.940725326538086,0.08619125932455063,0.08140286058187485
1728735886830852900,3.755852783203125,9.938331604003906,0.10055647045373917,0.08619125932455063
1728735886840862500,3.765862548828125,9.947908401489258,0.09816227108240128,0.08140286058187485
1728735886850872300,3.775872314453125,9.950302124023438,0.0933738648891449,0.08379705995321274
1728735886860851700,3.785851806640625,9.940725326538086,0.09816227108240128,0.08619125932455063
1728735886870861300,3.795861328125,9.952696800231934,0.1149216815829277,0.08619125932455063
1728735886880871200,3.80587109375,9.945513725280762,0.10534487664699554,0.08140286058187485
1728735886890850300,3.815850341796875,9.955090522766113,0.09576806426048279,0.07182604819536209
1728735886900829700,3.82582958984375,9.95748519897461,0.08858546614646912,0.07900865375995636
1728735886910839300,3.83583935546875,9.945513725280762,0.090979665517807,0.07182604819536209
1728735886920849200,3.84584912109375,9.952696800231934,0.09816227108240128,0.07900865375995636
1728735886930828300,3.855828369140625,9.947908401489258,0.10534487664699554,0.08619125932455063
1728735886940807700,3.8658076171875,9.952696800231934,0.10055647045373917,0.08379705995321274
1728735886950786800,3.875786865234375,9.952696800231934,0.09576806426048279,0.07661445438861847
1728735886960796700,3.885796630859375,9.955090522766113,0.09816227108240128,0.07422025501728058
1728735886970806500,3.895806640625,9.943120002746582,0.0933738648891449,0.08858546614646912
1728735886980816100,3.905816162109375,9.955090522766113,0.090979665517807,0.08140286058187485
1728735886990795500,3.91579541015625,9.952696800231934,0.10534487664699554,0.08379705995321274
1728735887000774700,3.925774658203125,9.947908401489258,0.10055647045373917,0.08858546614646912
1728735887010754000,3.935754150390625,9.945513725280762,0.10534487664699554,0.08619125932455063
1728735887020763600,3.945763671875,9.952696800231934,0.090979665517807,0.07661445438861847
1728735887030743000,3.955742919921875,9.947908401489258,0.09576806426048279,0.08379705995321274
1728735887040722200,3.96572216796875,9.95748519897461,0.10055647045373917,0.08619125932455063
1728735887050701600,3.97570166015625,9.938331604003906,0.10055647045373917,0.08379705995321274
1728735887060711200,3.985711181640625,9.964667320251465,0.10055647045373917,0.07422025501728058
1728735887070721000,3.995720947265625,9.959878921508789,0.10055647045373917,0.08619125932455063
1728735887080730600,4.005730712890625,9.93354320526123,0.09816227108240128,0.07900865375995636
1728735887090679600,4.015679443359375,9.947908401489258,0.0933738648891449,0.08379705995321274
1728735887100689200,4.025689208984375,9.955090522766113,0.09576806426048279,0.07422025501728058
1728735887110699000,4.035698974609375,9.959878921508789,0.10534487664699554,0.08858546614646912
1728735887120708900,4.045708984375,9.962273597717285,0.09816227108240128,0.08858546614646912
1728735887130657500,4.055657470703125,9.950302124023438,0.09816227108240128,0.08619125932455063
1728735887140667400,4.06566748046875,9.945513725280762,0.10295066982507706,0.07182604819536209
1728735887150646500,4.075646484375,9.952696800231934,0.10055647045373917,0.06703764945268631
1728735887160625700,4.085625732421875,9.943120002746582,0.10295066982507706,0.07900865375995636
1728735887170605000,4.09560498046875,9.955090522766113,0.10773907601833344,0.08619125932455063
1728735887180584200,4.105584228515625,9.95748519897461,0.10295066982507706,0.08140286058187485
1728735887190563600,4.1155634765625,9.945513725280762,0.09816227108240128,0.07182604819536209
1728735887200573200,4.1255732421875,9.950302124023438,0.07900865375995636,0.08379705995321274
1728735887210552600,4.135552490234375,9.959878921508789,0.10534487664699554,0.08379705995321274
1728735887220531700,4.14553173828125,9.967061996459961,0.09816227108240128,0.07182604819536209
1728735887230511000,4.155510986328125,9.943120002746582,0.10534487664699554,0.07900865375995636
1728735887240520700,4.165520751953125,9.955090522766113,0.0933738648891449,0.07900865375995636
1728735887250500000,4.1755,9.955090522766113,0.10055647045373917,0.08379705995321274
1728735887260479200,4.185479248046875,9.959878921508789,0.10534487664699554,0.08619125932455063
1728735887270458600,4.195458740234375,9.952696800231934,0.10295066982507706,0.08379705995321274
1728735887280437800,4.205437744140625,9.964667320251465,0.09576806426048279,0.08140286058187485
1728735887290447600,4.215447509765625,9.952696800231934,0.10295066982507706,0.090979665517807
1728735887300426800,4.2254267578125,9.955090522766113,0.09816227108240128,0.08379705995321274
1728735887310406100,4.23540625,9.950302124023438,0.10295066982507706,0.08140286058187485
1728735887320385300,4.24538525390625,9.947908401489258,0.0933738648891449,0.07900865375995636
1728735887330395100,4.25539501953125,9.950302124023438,0.090979665517807,0.08140286058187485
1728735887340404700,4.26540478515625,9.947908401489258,0.10055647045373917,0.07422025501728058
1728735887350384000,4.275384033203125,9.959878921508789,0.09576806426048279,0.0933738648891449
1728735887360363300,4.28536328125,9.950302124023438,0.10295066982507706,0.07900865375995636
1728735887370373000,4.295373046875,9.945513725280762,0.10295066982507706,0.07900865375995636
1728735887380352300,4.305352294921875,9.947908401489258,0.10534487664699554,0.07900865375995636
1728735887390331600,4.31533154296875,9.952696800231934,0.10055647045373917,0.07661445438861847
1728735887400341200,4.32534130859375,9.950302124023438,0.08858546614646912,0.08379705995321274
1728735887410351000,4.33535107421875,9.950302124023438,0.10773907601833344,0.07661445438861847
1728735887420361000,4.34536083984375,9.943120002746582,0.10773907601833344,0.08140286058187485
1728735887430340000,4.355340087890625,9.950302124023438,0.10055647045373917,0.08379705995321274
1728735887440319500,4.365319580078125,9.938331604003906,0.0933738648891449,0.07422025501728058
1728735887450329000,4.3753291015625,9.950302124023438,0.09816227108240128,0.08140286058187485
1728735887460339000,4.3853388671875,9.952696800231934,0.09816227108240128,0.08140286058187485
1728735887470318000,4.395318115234375,9.945513725280762,0.090979665517807,0.08140286058187485
1728735887480297500,4.40529736328125,9.950302124023438,0.09816227108240128,0.08379705995321274
1728735887490307000,4.41530712890625,9.952696800231934,0.10534487664699554,0.07900865375995636
1728735887500286500,4.425286376953125,9.947908401489258,0.09576806426048279,0.07900865375995636
1728735887510265600,4.435265625,9.945513725280762,0.10055647045373917,0.08619125932455063
1728735887520275500,4.445275390625,9.952696800231934,0.10295066982507706,0.07661445438861847
1728735887530285300,4.455285400390625,9.962273597717285,0.08858546614646912,0.07422025501728058
1728735887540264400,4.465264404296875,9.967061996459961,0.09576806426048279,0.07182604819536209
1728735887550274300,4.4752744140625,9.950302124023438,0.08619125932455063,0.07900865375995636
1728735887560284000,4.485283935546875,9.950302124023438,0.10295066982507706,0.07182604819536209
1728735887570293800,4.495293701171875,9.952696800231934,0.08858546614646912,0.08379705995321274
1728735887580273000,4.50527294921875,9.950302124023438,0.09816227108240128,0.08619125932455063
1728735887590282800,4.51528271484375,9.959878921508789,0.0933738648891449,0.08140286058187485
1728735887600292600,4.525292724609375,9.95748519897461,0.09816227108240128,0.07900865375995636
1728735887610241300,4.5352412109375,9.943120002746582,0.090979665517807,0.090979665517807
1728735887620251100,4.545251220703125,9.959878921508789,0.09816227108240128,0.08379705995321274
1728735887630260700,4.5552607421875,9.955090522766113,0.10055647045373917,0.07900865375995636
1728735887640270600,4.5652705078125,9.947908401489258,0.0933738648891449,0.06703764945268631
1728735887650219300,4.57521923828125,9.95748519897461,0.090979665517807,0.08858546614646912
1728735887660229000,4.58522900390625,9.959878921508789,0.10295066982507706,0.08619125932455063
1728735887670208300,4.595208251953125,9.950302124023438,0.09816227108240128,0.08140286058187485
1728735887680187600,4.605187744140625,9.947908401489258,0.10055647045373917,0.08140286058187485
1728735887690166800,4.615166748046875,9.952696800231934,0.10534487664699554,0.08619125932455063
1728735887700146000,4.62514599609375,9.95748519897461,0.09816227108240128,0.07900865375995636
1728735887710125300,4.635125244140625,9.952696800231934,0.10534487664699554,0.08140286058187485
1728735887720104400,4.6451044921875,9.947908401489258,0.09816227108240128,0.07182604819536209
1728735887730083800,4.655083740234375,9.955090522766113,0.090979665517807,0.08140286058187485
1728735887740063000,4.66506298828125,9.943120002746582,0.09816227108240128,0.08619125932455063
1728735887750042400,4.67504248046875,9.971850395202637,0.0933738648891449,0.08379705995321274
1728735887760052000,4.685052001953125,9.952696800231934,0.10055647045373917,0.07900865375995636
1728735887770031400,4.69503125,9.955090522766113,0.09816227108240128,0.07900865375995636
1728735887780010500,4.705010498046875,9.940725326538086,0.10295066982507706,0.07900865375995636
1728735887789990000,4.714989990234375,9.967061996459961,0.10534487664699554,0.07661445438861847
1728735887799969000,4.724968994140625,9.945513725280762,0.09816227108240128,0.07422025501728058
1728735887809979000,4.734978759765625,9.955090522766113,0.0933738648891449,0.08379705995321274
1728735887819958000,4.7449580078125,9.947908401489258,0.09576806426048279,0.07422025501728058
1728735887829937400,4.7549375,9.952696800231934,0.10295066982507706,0.08140286058187485
1728735887839916500,4.76491650390625,9.950302124023438,0.10055647045373917,0.07661445438861847
1728735887849926400,4.774926513671875,9.955090522766113,0.09816227108240128,0.07900865375995636
1728735887859936000,4.78493603515625,9.950302124023438,0.09816227108240128,0.08379705995321274
1728735887869915400,4.794915283203125,9.964667320251465,0.10055647045373917,0.07661445438861847
1728735887879894500,4.80489453125,9.947908401489258,0.0933738648891449,0.08140286058187485
1728735887889904400,4.814904296875,9.950302124023438,0.09816227108240128,0.08619125932455063
1728735887899883500,4.824883544921875,9.962273597717285,0.09576806426048279,0.08858546614646912
1728735887909832200,4.834832275390625,9.95748519897461,0.0933738648891449,0.08379705995321274
1728735887919842000,4.844842041015625,9.940725326538086,0.08379705995321274,0.08140286058187485
1728735887929852000,4.854851806640625,9.947908401489258,0.09576806426048279,0.07182604819536209
1728735887939861500,4.864861572265625,9.955090522766113,0.08858546614646912,0.08379705995321274
1728735887949810400,4.874810546875,9.95748519897461,0.0933738648891449,0.07182604819536209
1728735887959820000,4.884820068359375,9.940725326538086,0.090979665517807,0.08379705995321274
1728735887969830000,4.894829833984375,9.95748519897461,0.09816227108240128,0.090979665517807
1728735887979809000,4.90480908203125,9.93354320526123,0.10055647045373917,0.08140286058187485
1728735887989788400,4.914788330078125,9.940725326538086,0.10295066982507706,0.090979665517807
1728735887999798000,4.924798095703125,9.950302124023438,0.09576806426048279,0.08379705995321274
1728735888009808000,4.934807861328125,9.945513725280762,0.10055647045373917,0.08140286058187485
1728735888019817700,4.944817626953125,9.955090522766113,0.09576806426048279,0.08140286058187485
1728735888029796900,4.954796875,9.947908401489258,0.10534487664699554,0.07900865375995636
1728735888039806700,4.964806640625,9.943120002746582,0.09816227108240128,0.08140286058187485
1728735888049785900,4.974785888671875,9.952696800231934,0.09576806426048279,0.08140286058187485
1728735888059765200,4.98476513671875,9.950302124023438,0.09816227108240128,0.07661445438861847
1728735888069805600,4.9948056640625,9.940725326538086,0.09576806426048279,0.08140286058187485
1728735888079784700,5.00478466796875,9.952696800231934,0.09816227108240128,0.08379705995321274
1728735888089794600,5.014794677734375,9.952696800231934,0.090979665517807,0.08858546614646912
1728735888099804200,5.02480419921875,9.967061996459961,0.09816227108240128,0.07661445438861847
1728735888109783600,5.034783447265625,9.945513725280762,0.10055647045373917,0.07900865375995636
1728735888119762700,5.0447626953125,9.943120002746582,0.0933738648891449,0.08379705995321274
1728735888129772500,5.0547724609375,9.95748519897461,0.09816227108240128,0.08619125932455063
1728735888139751700,5.064751708984375,9.945513725280762,0.10534487664699554,0.08379705995321274
1728735888149761500,5.074761474609375,9.959878921508789,0.09576806426048279,0.07422025501728058
1728735888159771400,5.084771484375,9.945513725280762,0.09576806426048279,0.07900865375995636
1728735888169781000,5.094781005859375,9.959878921508789,0.10773907601833344,0.08140286058187485
1728735888179760400,5.104760498046875,9.967061996459961,0.09816227108240128,0.08140286058187485
1728735888189770000,5.11477001953125,9.945513725280762,0.11013327538967133,0.08379705995321274
1728735888199779800,5.12477978515625,9.959878921508789,0.090979665517807,0.08858546614646912
1728735888209789700,5.134789794921875,9.950302124023438,0.090979665517807,0.07661445438861847
1728735888219768800,5.144768798828125,9.96945571899414,0.10773907601833344,0.07661445438861847
1728735888229748000,5.154748046875,9.950302124023438,0.09816227108240128,0.07900865375995636
1728735888239757800,5.1647578125,9.959878921508789,0.10055647045373917,0.08619125932455063
1728735888249767700,5.174767578125,9.950302124023438,0.10534487664699554,0.07900865375995636
1728735888259746800,5.184746826171875,9.945513725280762,0.10295066982507706,0.07900865375995636
1728735888269726200,5.194726318359375,9.947908401489258,0.09816227108240128,0.07422025501728058
1728735888279735800,5.20473583984375,9.96945571899414,0.10295066982507706,0.08379705995321274
1728735888289745700,5.21474560546875,9.952696800231934,0.10534487664699554,0.08858546614646912
1728735888299755500,5.224755615234375,9.962273597717285,0.090979665517807,0.08858546614646912
1728735888309734700,5.234734619140625,9.943120002746582,0.10295066982507706,0.08858546614646912
1728735888319713800,5.2447138671875,9.950302124023438,0.0933738648891449,0.05985504388809204
1728735888329723600,5.2547236328125,9.950302124023438,0.10295066982507706,0.08619125932455063
1728735888339703000,5.264703125,9.962273597717285,0.09816227108240128,0.07900865375995636
1728735888349682200,5.27468212890625,9.955090522766113,0.10055647045373917,0.07900865375995636
1728735888359661300,5.284661376953125,9.95748519897461,0.10055647045373917,0.07661445438861847
1728735888369671200,5.294671142578125,9.945513725280762,0.10055647045373917,0.08858546614646912
1728735888379650300,5.304650390625,9.952696800231934,0.10055647045373917,0.07422025501728058
1728735888389629700,5.314629638671875,9.945513725280762,0.10055647045373917,0.07661445438861847
1728735888399639600,5.3246396484375,9.955090522766113,0.10534487664699554,0.07900865375995636
1728735888409649200,5.334649169921875,9.945513725280762,0.10055647045373917,0.08619125932455063
1728735888419628500,5.344628662109375,9.962273597717285,0.10534487664699554,0.08379705995321274
1728735888429638100,5.35463818359375,9.947908401489258,0.10295066982507706,0.07900865375995636
1728735888439648000,5.36464794921875,9.945513725280762,0.090979665517807,0.05985504388809204
1728735888449596700,5.3745966796875,9.947908401489258,0.090979665517807,0.08619125932455063
1728735888459606500,5.3846064453125,9.959878921508789,0.0933738648891449,0.09816227108240128
1728735888469616000,5.3946162109375,9.962273597717285,0.09576806426048279,0.090979665517807
1728735888479626000,5.4046259765625,9.943120002746582,0.09576806426048279,0.07661445438861847
1728735888489605400,5.41460546875,9.950302124023438,0.0933738648891449,0.08619125932455063
1728735888499615000,5.424614990234375,9.952696800231934,0.09816227108240128,0.07422025501728058
1728735888509624800,5.434624755859375,9.938331604003906,0.10534487664699554,0.0694318488240242
1728735888519634400,5.444634521484375,9.947908401489258,0.10295066982507706,0.08140286058187485
1728735888529613800,5.45461376953125,9.955090522766113,0.10295066982507706,0.090979665517807
1728735888539623700,5.464623779296875,9.962273597717285,0.10534487664699554,0.0933738648891449
1728735888549633300,5.47463330078125,9.964667320251465,0.10534487664699554,0.06464344263076782
1728735888559643100,5.48464306640625,9.940725326538086,0.08619125932455063,0.07661445438861847
1728735888569622300,5.494622314453125,9.950302124023438,0.10055647045373917,0.08619125932455063
1728735888579632000,5.504632080078125,9.962273597717285,0.11013327538967133,0.07900865375995636
1728735888589611300,5.514611328125,9.964667320251465,0.10534487664699554,0.07900865375995636
1728735888599590700,5.524590576171875,9.959878921508789,0.09576806426048279,0.07900865375995636
1728735888609569800,5.53456982421875,9.955090522766113,0.10534487664699554,0.08379705995321274
1728735888619579600,5.54457958984375,9.962273597717285,0.10055647045373917,0.08379705995321274
1728735888629558800,5.554558837890625,9.959878921508789,0.10055647045373917,0.0933738648891449
1728735888639538200,5.5645380859375,9.93354320526123,0.08140286058187485,0.08619125932455063
1728735888649517300,5.574517333984375,9.952696800231934,0.0933738648891449,0.07661445438861847
1728735888659496700,5.58449658203125,9.962273597717285,0.10534487664699554,0.08379705995321274
1728735888669475800,5.594475830078125,9.962273597717285,0.09816227108240128,0.07900865375995636
1728735888679485700,5.604485595703125,9.947908401489258,0.090979665517807,0.0933738648891449
1728735888689464800,5.61446484375,9.95748519897461,0.10534487664699554,0.08379705995321274
1728735888699444200,5.6244443359375,9.95748519897461,0.10055647045373917,0.07422025501728058
1728735888709423400,5.63442333984375,9.950302124023438,0.10055647045373917,0.07900865375995636
1728735888719433200,5.64443310546875,9.95748519897461,0.09816227108240128,0.08140286058187485
1728735888729412400,5.654412353515625,9.955090522766113,0.09816227108240128,0.08140286058187485
1728735888739391700,5.664391845703125,9.959878921508789,0.10534487664699554,0.07661445438861847
1728735888749371000,5.674370849609375,9.947908401489258,0.11252748221158981,0.08858546614646912
1728735888759350000,5.68435009765625,9.945513725280762,0.10773907601833344,0.07661445438861847
1728735888769360000,5.69435986328125,9.947908401489258,0.09816227108240128,0.0694318488240242
1728735888779369700,5.70436962890625,9.952696800231934,0.10773907601833344,0.08858546614646912
1728735888789318400,5.714318359375,9.950302124023438,0.0933738648891449,0.09816227108240128
1728735888799328300,5.724328369140625,9.945513725280762,0.09816227108240128,0.090979665517807
1728735888809337900,5.734337890625,9.952696800231934,0.09816227108240128,0.07661445438861847
1728735888819317200,5.744317138671875,9.947908401489258,0.10534487664699554,0.07661445438861847
1728735888829296400,5.75429638671875,9.959878921508789,0.090979665517807,0.07661445438861847
1728735888839306200,5.76430615234375,9.967061996459961,0.0933738648891449,0.07661445438861847
1728735888849315800,5.77431591796875,9.950302124023438,0.10773907601833344,0.08858546614646912
1728735888859325700,5.78432568359375,9.95748519897461,0.10295066982507706,0.08379705995321274
1728735888869274400,5.7942744140625,9.945513725280762,0.0933738648891449,0.07422025501728058
1728735888879284200,5.8042841796875,9.938331604003906,0.09816227108240128,0.07900865375995636
1728735888889294000,5.814294189453125,9.955090522766113,0.09816227108240128,0.07182604819536209
1728735888899303700,5.8243037109375,9.96945571899414,0.0933738648891449,0.07661445438861847
1728735888909283000,5.834282958984375,9.947908401489258,0.08379705995321274,0.0933738648891449
1728735888919262200,5.84426220703125,9.955090522766113,0.10295066982507706,0.08379705995321274
1728735888929272000,5.85427197265625,9.950302124023438,0.10773907601833344,0.07900865375995636
1728735888939251200,5.864251220703125,9.95748519897461,0.09816227108240128,0.0933738648891449
1728735888949230600,5.874230712890625,9.945513725280762,0.10055647045373917,0.090979665517807
1728735888959240200,5.884240234375,9.945513725280762,0.0933738648891449,0.0694318488240242
1728735888969219600,5.894219482421875,9.962273597717285,0.10534487664699554,0.08140286058187485
1728735888979198700,5.90419873046875,9.952696800231934,0.10055647045373917,0.07900865375995636
1728735888989178000,5.91417822265625,9.955090522766113,0.08140286058187485,0.08379705995321274
1728735888999187700,5.924187744140625,9.940725326538086,0.10295066982507706,0.07900865375995636
1728735889009167000,5.9341669921875,9.962273597717285,0.09816227108240128,0.07900865375995636
1728735889019146200,5.944146240234375,9.952696800231934,0.0933738648891449,0.08379705995321274
1728735889029125600,5.954125732421875,9.955090522766113,0.09816227108240128,0.08140286058187485
1728735889039104800,5.964104736328125,9.971850395202637,0.090979665517807,0.07900865375995636
1728735889049084000,5.974083984375,9.955090522766113,0.10773907601833344,0.07661445438861847
1728735889059093800,5.98409375,9.95748519897461,0.090979665517807,0.090979665517807
1728735889069073200,5.9940732421875,9.950302124023438,0.10055647045373917,0.08619125932455063
1728735889079082800,6.004082763671875,9.955090522766113,0.10055647045373917,0.07661445438861847
1728735889089092600,6.014092529296875,9.952696800231934,0.09816227108240128,0.06464344263076782
1728735889099102200,6.024102294921875,9.95748519897461,0.11013327538967133,0.08140286058187485
1728735889109112000,6.034112060546875,9.955090522766113,0.10295066982507706,0.07900865375995636
1728735889119122000,6.044121826171875,9.945513725280762,0.09576806426048279,0.08140286058187485
1728735889129131500,6.054131591796875,9.95748519897461,0.10295066982507706,0.07900865375995636
1728735889139171800,6.064171875,9.950302124023438,0.10055647045373917,0.07422025501728058
1728735889149151200,6.074151123046875,9.955090522766113,0.09816227108240128,0.07661445438861847
1728735889159160800,6.084160888671875,9.962273597717285,0.10295066982507706,0.08140286058187485
1728735889169140200,6.09414013671875,9.962273597717285,0.10534487664699554,0.07182604819536209
1728735889179119400,6.104119384765625,9.955090522766113,0.10055647045373917,0.08858546614646912
1728735889189098800,6.1140986328125,9.952696800231934,0.090979665517807,0.08619125932455063
1728735889199078000,6.124077880859375,9.962273597717285,0.10534487664699554,0.07661445438861847
1728735889209057300,6.134057373046875,9.959878921508789,0.09576806426048279,0.07661445438861847
1728735889219036400,6.144036376953125,9.943120002746582,0.09816227108240128,0.07900865375995636
1728735889229015600,6.154015625,9.945513725280762,0.09816227108240128,0.07182604819536209
1728735889239025400,6.164025390625,9.955090522766113,0.10295066982507706,0.08379705995321274
1728735889249004800,6.1740048828125,9.945513725280762,0.10295066982507706,0.08379705995321274
1728735889258984000,6.18398388671875,9.95748519897461,0.09576806426048279,0.08140286058187485
1728735889268963000,6.193963134765625,9.945513725280762,0.10534487664699554,0.06703764945268631
1728735889278942500,6.2039423828125,9.945513725280762,0.0933738648891449,0.08619125932455063
1728735889288921600,6.213921630859375,9.955090522766113,0.09816227108240128,0.08140286058187485
1728735889298931500,6.223931396484375,9.952696800231934,0.10534487664699554,0.08379705995321274
1728735889308910600,6.23391064453125,9.940725326538086,0.08858546614646912,0.08140286058187485
1728735889318920400,6.24392041015625,9.945513725280762,0.10055647045373917,0.07422025501728058
1728735889328869000,6.253869140625,9.950302124023438,0.09816227108240128,0.08140286058187485
1728735889338879000,6.26387890625,9.940725326538086,0.09816227108240128,0.0694318488240242
1728735889348888800,6.273888916015625,9.959878921508789,0.08619125932455063,0.08619125932455063
1728735889358898400,6.2838984375,9.945513725280762,0.0933738648891449,0.08140286058187485
1728735889368908300,6.293908203125,9.964667320251465,0.10295066982507706,0.090979665517807
1728735889378887400,6.303887451171875,9.955090522766113,0.10055647045373917,0.08379705995321274
1728735889388866800,6.31386669921875,9.943120002746582,0.0933738648891449,0.090979665517807
1728735889398876400,6.32387646484375,9.95748519897461,0.09816227108240128,0.07422025501728058
1728735889408855800,6.333855712890625,9.95748519897461,0.09816227108240128,0.07900865375995636
1728735889418835000,6.3438349609375,9.947908401489258,0.09816227108240128,0.07182604819536209
1728735889428814300,6.353814453125,9.95748519897461,0.10055647045373917,0.07422025501728058
1728735889438793500,6.36379345703125,9.947908401489258,0.09816227108240128,0.07661445438861847
1728735889448772900,6.37377294921875,9.95748519897461,0.0933738648891449,0.07182604819536209
1728735889458752000,6.383751953125,9.938331604003906,0.0933738648891449,0.07182604819536209
1728735889468731100,6.393731201171875,9.950302124023438,0.10055647045373917,0.08379705995321274
1728735889478741000,6.403740966796875,9.947908401489258,0.11252748221158981,0.07661445438861847
1728735889488720100,6.41372021484375,9.959878921508789,0.10534487664699554,0.08140286058187485
1728735889498699500,6.423699462890625,9.940725326538086,0.09576806426048279,0.08379705995321274
1728735889508678700,6.4336787109375,9.943120002746582,0.0933738648891449,0.090979665517807
1728735889518688500,6.4436884765625,9.955090522766113,0.10773907601833344,0.07661445438861847
1728735889528667600,6.453667724609375,9.950302124023438,0.10295066982507706,0.08619125932455063
1728735889538647000,6.46364697265625,9.962273597717285,0.09816227108240128,0.07900865375995636
1728735889548626200,6.473626220703125,9.947908401489258,0.0933738648891449,0.06703764945268631
1728735889558605600,6.48360546875,9.952696800231934,0.090979665517807,0.07900865375995636
1728735889568584700,6.493584716796875,9.93354320526123,0.08858546614646912,0.08858546614646912
1728735889578564000,6.503564208984375,9.955090522766113,0.08619125932455063,0.08379705995321274
1728735889588543200,6.513543212890625,9.950302124023438,0.09816227108240128,0.07661445438861847
1728735889598553000,6.523552978515625,9.959878921508789,0.09576806426048279,0.07422025501728058
1728735889608532200,6.5335322265625,9.955090522766113,0.09576806426048279,0.08619125932455063
1728735889618511600,6.54351171875,9.947908401489258,0.09576806426048279,0.07900865375995636
1728735889628490800,6.55349072265625,9.955090522766113,0.0933738648891449,0.07900865375995636
1728735889638470000,6.563469970703125,9.959878921508789,0.09816227108240128,0.08379705995321274
1728735889648449300,6.57344921875,9.95748519897461,0.10295066982507706,0.08858546614646912
1728735889658459100,6.583459228515625,9.950302124023438,0.10055647045373917,0.08858546614646912
1728735889668468700,6.59346875,9.943120002746582,0.07900865375995636,0.08858546614646912
1728735889678478600,6.603478515625,9.950302124023438,0.10055647045373917,0.08619125932455063
1728735889688457700,6.613457763671875,9.940725326538086,0.09816227108240128,0.08379705995321274
1728735889698437000,6.62343701171875,9.96945571899414,0.10055647045373917,0.08619125932455063
1728735889708446700,6.63344677734375,9.959878921508789,0.10773907601833344,0.08140286058187485
1728735889718456600,6.64345654296875,9.967061996459961,0.09816227108240128,0.08379705995321274
1728735889728466400,6.653466552734375,9.955090522766113,0.10055647045373917,0.07900865375995636
1728735889738476000,6.66347607421875,9.952696800231934,0.10534487664699554,0.07182604819536209
1728735889748455400,6.673455322265625,9.967061996459961,0.09816227108240128,0.07661445438861847
1728735889758465000,6.683465087890625,9.962273597717285,0.10295066982507706,0.08140286058187485
1728735889768444400,6.6934443359375,9.967061996459961,0.0933738648891449,0.07661445438861847
1728735889778423600,6.703423583984375,9.907206535339355,0.05506663769483566,0.08379705995321274
1728735889788403000,6.71340283203125,9.923966407775879,0.0933738648891449,0.0933738648891449
1728735889798412500,6.72341259765625,9.962273597717285,0.11252748221158981,0.090979665517807
1728735889808392000,6.733391845703125,10.002974510192871,0.11971008777618408,0.08619125932455063
1728735889818371000,6.74337109375,9.950302124023438,0.10773907601833344,0.07182604819536209
1728735889828350500,6.7533505859375,9.931148529052734,0.09576806426048279,0.08619125932455063
1728735889838360000,6.763360107421875,9.93354320526123,0.09576806426048279,0.08379705995321274
1728735889848339500,6.77333935546875,9.974244117736816,0.10534487664699554,0.07900865375995636
1728735889858318600,6.783318603515625,9.974244117736816,0.09816227108240128,0.07661445438861847
1728735889868298000,6.793298095703125,9.940725326538086,0.09816227108240128,0.07422025501728058
1728735889878277000,6.803277099609375,9.955090522766113,0.08858546614646912,0.08140286058187485
1728735889888287000,6.813286865234375,9.955090522766113,0.090979665517807,0.08619125932455063
1728735889898266000,6.82326611328125,9.952696800231934,0.090979665517807,0.08379705995321274
1728735889908245500,6.83324560546875,9.959878921508789,0.09816227108240128,0.07661445438861847
1728735889918255000,6.843255126953125,9.955090522766113,0.10295066982507706,0.08619125932455063
1728735889928234500,6.853234375,9.950302124023438,0.0933738648891449,0.07900865375995636
1728735889938213600,6.863213623046875,9.947908401489258,0.10773907601833344,0.07661445438861847
1728735889948193000,6.873193115234375,9.931148529052734,0.09816227108240128,0.08619125932455063
1728735889958172200,6.883172119140625,9.950302124023438,0.09816227108240128,0.07182604819536209
1728735889968182000,6.89318212890625,9.962273597717285,0.10295066982507706,0.08858546614646912
1728735889978161200,6.9031611328125,9.945513725280762,0.09576806426048279,0.08858546614646912
1728735889988140500,6.913140625,9.955090522766113,0.10055647045373917,0.08379705995321274
1728735889998119700,6.92311962890625,9.952696800231934,0.09816227108240128,0.07900865375995636
1728735890008129500,6.933129638671875,9.955090522766113,0.10534487664699554,0.08379705995321274
1728735890018139100,6.94313916015625,9.943120002746582,0.10534487664699554,0.07900865375995636
1728735890028118500,6.953118408203125,9.959878921508789,0.10055647045373917,0.08140286058187485
1728735890038128000,6.963128173828125,9.967061996459961,0.09816227108240128,0.08858546614646912
1728735890048107500,6.973107421875,9.945513725280762,0.0933738648891449,0.07182604819536209
1728735890058086700,6.983086669921875,9.947908401489258,0.10055647045373917,0.07422025501728058
1728735890068066000,6.993066162109375,9.947908401489258,0.10055647045373917,0.08619125932455063
1728735890078075600,7.00307568359375,9.959878921508789,0.10534487664699554,0.08858546614646912
1728735890088055000,7.013054931640625,9.952696800231934,0.09816227108240128,0.07661445438861847
1728735890098034200,7.0230341796875,9.952696800231934,0.10055647045373917,0.08619125932455063
1728735890108013600,7.033013671875,9.952696800231934,0.0933738648891449,0.07900865375995636
1728735890118023200,7.043023193359375,9.95748519897461,0.09816227108240128,0.07422025501728058
1728735890128002600,7.05300244140625,9.950302124023438,0.10055647045373917,0.090979665517807
1728735890138012200,7.06301220703125,9.938331604003906,0.09816227108240128,0.07900865375995636
1728735890147991600,7.072991455078125,9.947908401489258,0.09576806426048279,0.08858546614646912
1728735890157970700,7.082970703125,9.947908401489258,0.08858546614646912,0.08619125932455063
1728735890167950000,7.0929501953125,9.95748519897461,0.0933738648891449,0.07422025501728058
1728735890177929200,7.10292919921875,9.95748519897461,0.0933738648891449,0.07661445438861847
1728735890187939000,7.11293896484375,9.952696800231934,0.09576806426048279,0.07661445438861847
1728735890197948700,7.12294873046875,9.950302124023438,0.09816227108240128,0.07182604819536209
1728735890207928000,7.132927978515625,9.95748519897461,0.10534487664699554,0.08379705995321274
1728735890217937700,7.142937744140625,9.952696800231934,0.10055647045373917,0.08379705995321274
1728735890227917000,7.1529169921875,9.952696800231934,0.0933738648891449,0.08379705995321274
1728735890237896200,7.162896240234375,9.974244117736816,0.11013327538967133,0.07900865375995636
1728735890247875600,7.17287548828125,9.952696800231934,0.10055647045373917,0.07900865375995636
1728735890257885200,7.18288525390625,9.945513725280762,0.09816227108240128,0.06464344263076782
1728735890267895000,7.19289501953125,9.971850395202637,0.09816227108240128,0.07661445438861847
1728735890277905000,7.20290478515625,9.95748519897461,0.10534487664699554,0.08140286058187485
1728735890287914500,7.21291455078125,9.955090522766113,0.11252748221158981,0.090979665517807
1728735890297894000,7.222893798828125,9.955090522766113,0.09816227108240128,0.08140286058187485
1728735890307903500,7.232903564453125,9.940725326538086,0.10055647045373917,0.08379705995321274
1728735890317913300,7.242913330078125,9.95748519897461,0.09576806426048279,0.08140286058187485
1728735890327923200,7.252923095703125,9.95748519897461,0.10055647045373917,0.08619125932455063
1728735890337902300,7.26290234375,9.955090522766113,0.10055647045373917,0.0694318488240242
1728735890347881700,7.2728818359375,9.945513725280762,0.10055647045373917,0.08619125932455063
1728735890357860900,7.28286083984375,9.950302124023438,0.08619125932455063,0.08379705995321274
1728735890367870700,7.29287060546875,9.967061996459961,0.090979665517807,0.0694318488240242
1728735890377880300,7.30288037109375,9.945513725280762,0.090979665517807,0.08379705995321274
1728735890387829200,7.312829345703125,9.955090522766113,0.090979665517807,0.08379705995321274
1728735890397838800,7.3228388671875,9.959878921508789,0.10055647045373917,0.08619125932455063
1728735890407848700,7.3328486328125,9.95748519897461,0.11252748221158981,0.07900865375995636
1728735890417827800,7.342827880859375,9.950302124023438,0.0933738648891449,0.07182604819536209
1728735890427837700,7.352837646484375,9.943120002746582,0.090979665517807,0.08140286058187485
1728735890437847600,7.36284765625,9.955090522766113,0.0933738648891449,0.090979665517807
1728735890447857200,7.372857177734375,9.952696800231934,0.10534487664699554,0.08379705995321274
1728735890457867000,7.382866943359375,9.952696800231934,0.10295066982507706,0.08858546614646912
1728735890467815700,7.392815673828125,9.940725326538086,0.090979665517807,0.07900865375995636
1728735890477825500,7.402825439453125,9.955090522766113,0.10295066982507706,0.0933738648891449
1728735890487835100,7.412835205078125,9.945513725280762,0.10295066982507706,0.07182604819536209
1728735890497845000,7.422844970703125,9.947908401489258,0.0933738648891449,0.08140286058187485
1728735890507793700,7.432793701171875,9.947908401489258,0.0933738648891449,0.07900865375995636
1728735890517803500,7.442803466796875,9.940725326538086,0.10055647045373917,0.07900865375995636
1728735890527813400,7.4528134765625,9.962273597717285,0.08858546614646912,0.08858546614646912
1728735890537792500,7.46279248046875,9.952696800231934,0.10773907601833344,0.07900865375995636
1728735890547802400,7.47280224609375,9.947908401489258,0.10055647045373917,0.08619125932455063
1728735890557812000,7.48281201171875,9.955090522766113,0.11252748221158981,0.06703764945268631
1728735890567821800,7.49282177734375,9.959878921508789,0.09816227108240128,0.07900865375995636
1728735890577801000,7.502801025390625,9.952696800231934,0.09816227108240128,0.08858546614646912
1728735890587841300,7.51284130859375,9.940725326538086,0.090979665517807,0.08140286058187485
1728735890597820700,7.522820556640625,9.950302124023438,0.090979665517807,0.08379705995321274
1728735890607830300,7.532830322265625,9.95748519897461,0.10055647045373917,0.08140286058187485
1728735890617840000,7.542840087890625,9.947908401489258,0.090979665517807,0.09576806426048279
1728735890627819300,7.5528193359375,9.955090522766113,0.090979665517807,0.08379705995321274
1728735890637798700,7.562798583984375,9.95748519897461,0.10773907601833344,0.07422025501728058
1728735890647808500,7.57280859375,9.955090522766113,0.0933738648891449,0.07182604819536209
1728735890657787600,7.58278759765625,9.955090522766113,0.08379705995321274,0.07661445438861847
1728735890667766800,7.592766845703125,9.959878921508789,0.10295066982507706,0.07661445438861847
1728735890677746200,7.60274609375,9.95748519897461,0.10055647045373917,0.07900865375995636
1728735890687755800,7.612755859375,9.947908401489258,0.10773907601833344,0.08140286058187485
1728735890697765600,7.622765625,9.952696800231934,0.10055647045373917,0.090979665517807
1728735890707745000,7.6327451171875,9.952696800231934,0.0933738648891449,0.07661445438861847
1728735890717724200,7.64272412109375,9.947908401489258,0.09576806426048279,0.08379705995321274
1728735890727734000,7.652734130859375,9.955090522766113,0.10295066982507706,0.07900865375995636
1728735890737713200,7.662713134765625,9.943120002746582,0.11013327538967133,0.08140286058187485
1728735890747723000,7.672722900390625,9.955090522766113,0.09576806426048279,0.07422025501728058
1728735890757732600,7.682732666015625,9.947908401489258,0.09816227108240128,0.07900865375995636
1728735890767742500,7.692742431640625,9.950302124023438,0.09816227108240128,0.090979665517807
1728735890777752300,7.70275244140625,9.945513725280762,0.090979665517807,0.08140286058187485
1728735890787701000,7.712700927734375,9.940725326538086,0.09576806426048279,0.08619125932455063
1728735890797710800,7.7227109375,9.959878921508789,0.10295066982507706,0.08619125932455063
1728735890807720400,7.732720458984375,9.959878921508789,0.08858546614646912,0.07661445438861847
1728735890817699800,7.742699951171875,9.952696800231934,0.10534487664699554,0.08619125932455063
1728735890827740000,7.752739990234375,9.947908401489258,0.10534487664699554,0.07182604819536209
1728735890837719300,7.76271923828125,9.952696800231934,0.09816227108240128,0.08858546614646912
1728735890847729200,7.772729248046875,9.950302124023438,0.09576806426048279,0.08379705995321274
1728735890857738800,7.78273876953125,9.95748519897461,0.10055647045373917,0.07661445438861847
1728735890867718100,7.79271826171875,9.967061996459961,0.10534487664699554,0.08858546614646912
1728735890877697300,7.802697265625,9.950302124023438,0.10055647045373917,0.08379705995321274
1728735890887707100,7.81270703125,9.95748519897461,0.08619125932455063,0.08858546614646912
1728735890897686300,7.822686279296875,9.952696800231934,0.08619125932455063,0.07661445438861847
1728735890907665700,7.832665771484375,9.95748519897461,0.0933738648891449,0.07422025501728058
1728735890917675300,7.84267529296875,9.940725326538086,0.09576806426048279,0.07422025501728058
1728735890927685000,7.85268505859375,9.955090522766113,0.10295066982507706,0.08858546614646912
1728735890937695000,7.862695068359375,9.947908401489258,0.10055647045373917,0.0933738648891449
1728735890947674000,7.872674072265625,9.971850395202637,0.10055647045373917,0.08379705995321274
1728735890957653200,7.8826533203125,9.943120002746582,0.0933738648891449,0.07900865375995636
1728735890967663000,7.8926630859375,9.95748519897461,0.09816227108240128,0.07182604819536209
1728735890977673000,7.9026728515625,9.955090522766113,0.090979665517807,0.08619125932455063
1728735890987652000,7.912652099609375,9.955090522766113,0.10055647045373917,0.08140286058187485
1728735890997631500,7.922631591796875,9.947908401489258,0.09816227108240128,0.07900865375995636
1728735891007641000,7.93264111328125,9.947908401489258,0.09576806426048279,0.07900865375995636
1728735891017651000,7.94265087890625,9.940725326538086,0.10534487664699554,0.08379705995321274
1728735891027630000,7.952630126953125,9.947908401489258,0.08858546614646912,0.08379705995321274
1728735891037609500,7.962609375,9.950302124023438,0.10055647045373917,0.0933738648891449
1728735891047619000,7.972619140625,9.947908401489258,0.090979665517807,0.07182604819536209
1728735891057629000,7.98262890625,9.950302124023438,0.08619125932455063,0.08140286058187485
1728735891067608000,7.992608154296875,9.950302124023438,0.09816227108240128,0.08619125932455063
1728735891077587500,8.00258740234375,9.95748519897461,0.10295066982507706,0.08140286058187485
1728735891087597300,8.012597412109375,9.947908401489258,0.090979665517807,0.08379705995321274
1728735891097607000,8.02260693359375,9.945513725280762,0.08858546614646912,0.07661445438861847
1728735891107586300,8.03258642578125,9.967061996459961,0.10055647045373917,0.08140286058187485
1728735891117565400,8.0425654296875,9.952696800231934,0.09816227108240128,0.07422025501728058
1728735891127575300,8.0525751953125,9.95748519897461,0.09816227108240128,0.07182604819536209
1728735891137585000,8.0625849609375,9.952696800231934,0.10055647045373917,0.07182604819536209
1728735891147564300,8.072564208984375,9.955090522766113,0.10055647045373917,0.07900865375995636
1728735891157543400,8.08254345703125,9.967061996459961,0.0933738648891449,0.07661445438861847
1728735891167553300,8.09255322265625,9.947908401489258,0.09576806426048279,0.07900865375995636
1728735891177563100,8.102563232421875,9.955090522766113,0.09816227108240128,0.07900865375995636
1728735891187542300,8.112542236328125,9.950302124023438,0.0933738648891449,0.06703764945268631
1728735891197521400,8.122521484375,9.959878921508789,0.10773907601833344,0.08379705995321274
1728735891207531300,8.13253125,9.952696800231934,0.09816227108240128,0.08140286058187485
1728735891217510700,8.1425107421875,9.945513725280762,0.10295066982507706,0.07661445438861847
1728735891227489800,8.15248974609375,9.950302124023438,0.10055647045373917,0.07422025501728058
1728735891237469000,8.162468994140625,9.952696800231934,0.08379705995321274,0.07661445438861847
1728735891247478800,8.172478759765625,9.959878921508789,0.09576806426048279,0.07422025501728058
1728735891257488600,8.182488525390625,9.952696800231934,0.10295066982507706,0.07422025501728058
1728735891267498200,8.192498291015625,9.947908401489258,0.09816227108240128,0.08140286058187485
1728735891277477600,8.2024775390625,9.947908401489258,0.09816227108240128,0.08140286058187485
1728735891287456800,8.212456787109375,9.945513725280762,0.09816227108240128,0.07182604819536209
1728735891297436200,8.222436279296875,9.95748519897461,0.09576806426048279,0.07900865375995636
1728735891307415300,8.232415283203125,9.959878921508789,0.10773907601833344,0.08858546614646912
1728735891317425200,8.242425048828125,9.952696800231934,0.09816227108240128,0.090979665517807
1728735891327404300,8.252404296875,9.955090522766113,0.09576806426048279,0.07422025501728058
1728735891337414100,8.2624140625,9.962273597717285,0.090979665517807,0.08858546614646912
1728735891347393300,8.272393310546875,9.952696800231934,0.10534487664699554,0.08140286058187485
1728735891357372700,8.28237255859375,9.952696800231934,0.09816227108240128,0.08619125932455063
1728735891367351800,8.292351806640625,9.947908401489258,0.09816227108240128,0.07661445438861847
1728735891377361700,8.302361572265625,9.945513725280762,0.090979665517807,0.08140286058187485
1728735891387371300,8.312371337890625,9.947908401489258,0.09816227108240128,0.08379705995321274
1728735891397381000,8.322381103515625,9.96945571899414,0.09576806426048279,0.08140286058187485
1728735891407391000,8.332390869140625,9.950302124023438,0.0933738648891449,0.07661445438861847
1728735891417400600,8.342400634765625,9.959878921508789,0.10055647045373917,0.07900865375995636
1728735891427380000,8.3523798828125,9.945513725280762,0.09816227108240128,0.07422025501728058
1728735891437389600,8.3623896484375,9.947908401489258,0.09816227108240128,0.09576806426048279
1728735891447369000,8.372368896484375,9.947908401489258,0.09816227108240128,0.07422025501728058
1728735891457348000,8.38234814453125,9.945513725280762,0.09576806426048279,0.08379705995321274
1728735891467327500,8.392327392578125,9.962273597717285,0.09576806426048279,0.08379705995321274
1728735891477306600,8.402306640625,9.952696800231934,0.10534487664699554,0.07900865375995636
1728735891487286000,8.4122861328125,9.940725326538086,0.10055647045373917,0.07422025501728058
1728735891497265200,8.42226513671875,9.959878921508789,0.09816227108240128,0.090979665517807
1728735891507244500,8.43224462890625,9.943120002746582,0.10534487664699554,0.08140286058187485
1728735891517223700,8.4422236328125,9.959878921508789,0.11252748221158981,0.08619125932455063
1728735891527202800,8.452202880859375,9.943120002746582,0.0933738648891449,0.07661445438861847
1728735891537182200,8.46218212890625,9.938331604003906,0.10773907601833344,0.08379705995321274
1728735891547161300,8.472161376953125,9.955090522766113,0.10773907601833344,0.090979665517807
1728735891557140700,8.482140625,9.947908401489258,0.10055647045373917,0.07900865375995636
1728735891567120000,8.492119873046875,9.955090522766113,0.0933738648891449,0.07900865375995636
1728735891577129700,8.502129638671875,9.947908401489258,0.0933738648891449,0.09576806426048279
1728735891587139300,8.512139404296875,9.96945571899414,0.10055647045373917,0.07900865375995636
1728735891597149200,8.522149169921875,9.945513725280762,0.09816227108240128,0.08619125932455063
1728735891607159000,8.532158935546875,9.945513725280762,0.09816227108240128,0.07422025501728058
1728735891617168600,8.542168701171875,9.950302124023438,0.09576806426048279,0.0933738648891449
1728735891627117600,8.55211767578125,9.955090522766113,0.10534487664699554,0.08379705995321274
1728735891637127200,8.562127197265625,9.794678688049316,0.10055647045373917,0.08379705995321274
1728735891647137000,8.572136962890625,9.904812812805176,0.08858546614646912,0.08379705995321274
1728735891657147000,8.58214697265625,10.002974510192871,0.08379705995321274,0.07900865375995636
1728735891667095600,8.592095458984375,9.940725326538086,0.10055647045373917,0.08379705995321274
1728735891677105200,8.602105224609375,9.943120002746582,0.09576806426048279,0.08858546614646912
1728735891687115000,8.612114990234375,9.95748519897461,0.08858546614646912,0.07900865375995636
1728735891697124900,8.622124755859375,9.93354320526123,0.09576806426048279,0.08140286058187485
1728735891707104000,8.63210400390625,9.96945571899414,0.10055647045373917,0.08619125932455063
1728735891717113900,8.64211376953125,9.947908401489258,0.10295066982507706,0.07900865375995636
1728735891727093000,8.652093017578125,9.952696800231934,0.0933738648891449,0.08379705995321274
1728735891737072400,8.662072265625,9.952696800231934,0.10534487664699554,0.07182604819536209
1728735891747051500,8.672051513671875,9.95748519897461,0.1173158809542656,0.07900865375995636
1728735891757061400,8.682061279296875,9.959878921508789,0.09816227108240128,0.08619125932455063
1728735891767040500,8.69204052734375,9.952696800231934,0.0933738648891449,0.06703764945268631
1728735891777020000,8.70202001953125,9.945513725280762,0.10055647045373917,0.08379705995321274
1728735891786999000,8.7119990234375,9.959878921508789,0.10295066982507706,0.090979665517807
1728735891797009000,8.7220087890625,9.952696800231934,0.10773907601833344,0.07900865375995636
1728735891806988000,8.731988037109375,9.945513725280762,0.09576806426048279,0.08379705995321274
1728735891816967400,8.741967529296875,9.945513725280762,0.10773907601833344,0.07182604819536209
1728735891826946600,8.751946533203125,9.959878921508789,0.10773907601833344,0.07900865375995636
1728735891836925700,8.76192578125,9.947908401489258,0.09816227108240128,0.08140286058187485
1728735891846905000,8.771905029296875,9.955090522766113,0.09576806426048279,0.08140286058187485
1728735891856915000,8.7819150390625,9.955090522766113,0.09816227108240128,0.07900865375995636
1728735891866894000,8.79189404296875,9.95748519897461,0.10534487664699554,0.08379705995321274
1728735891876873200,8.801873291015625,9.943120002746582,0.0933738648891449,0.08379705995321274
1728735891886852600,8.8118525390625,9.959878921508789,0.10534487664699554,0.07900865375995636
1728735891896862500,8.821862548828125,9.955090522766113,0.11013327538967133,0.08379705995321274
1728735891906872000,8.8318720703125,9.952696800231934,0.0933738648891449,0.08858546614646912
1728735891916882000,8.8418818359375,9.955090522766113,0.10295066982507706,0.0694318488240242
1728735891926830600,8.85183056640625,9.947908401489258,0.09576806426048279,0.07182604819536209
1728735891936840400,8.86184033203125,9.952696800231934,0.10534487664699554,0.08379705995321274
1728735891946880800,8.871880859375,9.943120002746582,0.09576806426048279,0.0933738648891449
1728735891956890400,8.881890380859375,9.947908401489258,0.10055647045373917,0.07422025501728058
1728735891966869800,8.891869873046875,9.959878921508789,0.090979665517807,0.07661445438861847
1728735891976849000,8.901848876953125,9.964667320251465,0.09576806426048279,0.07661445438861847
1728735891986828300,8.911828369140625,9.947908401489258,0.09816227108240128,0.090979665517807
1728735891996807400,8.921807373046875,9.950302124023438,0.09816227108240128,0.07900865375995636
1728735892006786600,8.93178662109375,9.943120002746582,0.090979665517807,0.07422025501728058
1728735892016796400,8.94179638671875,9.95748519897461,0.10534487664699554,0.090979665517807
1728735892026836700,8.951836669921875,9.959878921508789,0.10295066982507706,0.08379705995321274
1728735892036846600,8.9618466796875,9.964667320251465,0.090979665517807,0.07422025501728058
1728735892046825700,8.97182568359375,9.952696800231934,0.090979665517807,0.07661445438861847
1728735892056804900,8.981804931640625,9.945513725280762,0.09816227108240128,0.08619125932455063
1728735892066784300,8.9917841796875,9.955090522766113,0.10773907601833344,0.07182604819536209
1728735892076763400,9.001763427734375,9.945513725280762,0.08858546614646912,0.090979665517807
1728735892086742800,9.01174267578125,9.945513725280762,0.090979665517807,0.07422025501728058
1728735892096722000,9.021721923828125,9.967061996459961,0.09576806426048279,0.07661445438861847
1728735892106731800,9.031731689453125,9.967061996459961,0.09816227108240128,0.08379705995321274
1728735892116741400,9.041741455078125,9.955090522766113,0.10055647045373917,0.08619125932455063
1728735892126751200,9.051751220703125,9.955090522766113,0.0933738648891449,0.07422025501728058
1728735892136730600,9.061730712890625,9.952696800231934,0.09816227108240128,0.08379705995321274
1728735892146740200,9.071740234375,9.952696800231934,0.0933738648891449,0.08858546614646912
1728735892156750000,9.08175,9.959878921508789,0.10295066982507706,0.07661445438861847
1728735892166729200,9.091729248046875,9.950302124023438,0.090979665517807,0.08379705995321274
1728735892176739000,9.101739013671875,9.955090522766113,0.08858546614646912,0.07661445438861847
1728735892186718200,9.11171826171875,9.959878921508789,0.10773907601833344,0.0933738648891449
1728735892196697600,9.121697509765625,9.952696800231934,0.09576806426048279,0.07661445438861847
1728735892206676700,9.1316767578125,9.947908401489258,0.09816227108240128,0.06703764945268631
1728735892216656100,9.14165625,9.952696800231934,0.09816227108240128,0.08379705995321274
1728735892226635300,9.15163525390625,9.950302124023438,0.10295066982507706,0.08858546614646912
1728735892236645000,9.16164501953125,9.962273597717285,0.10534487664699554,0.07900865375995636
1728735892246624300,9.171624267578125,9.952696800231934,0.0933738648891449,0.07900865375995636
1728735892256603600,9.181603759765625,9.950302124023438,0.090979665517807,0.07900865375995636
1728735892266582800,9.191582763671875,9.95748519897461,0.11252748221158981,0.08858546614646912
1728735892276592600,9.201592529296875,9.947908401489258,0.09816227108240128,0.07661445438861847
1728735892286571800,9.21157177734375,9.947908401489258,0.09576806426048279,0.07422025501728058
1728735892296551200,9.22155126953125,9.945513725280762,0.11013327538967133,0.08379705995321274
1728735892306530300,9.2315302734375,9.964667320251465,0.10534487664699554,0.08140286058187485
1728735892316540200,9.2415400390625,9.945513725280762,0.10534487664699554,0.08379705995321274
1728735892326519300,9.251519287109375,9.952696800231934,0.0933738648891449,0.08619125932455063
1728735892336498700,9.261498779296875,9.950302124023438,0.09576806426048279,0.08619125932455063
1728735892346477800,9.271477783203125,9.95748519897461,0.10055647045373917,0.090979665517807
1728735892356457000,9.28145703125,9.959878921508789,0.09816227108240128,0.0694318488240242
1728735892366466800,9.291466796875,9.95748519897461,0.0933738648891449,0.08858546614646912
1728735892376446000,9.301446044921875,9.955090522766113,0.090979665517807,0.07661445438861847
1728735892386455800,9.311455810546875,9.955090522766113,0.10773907601833344,0.08858546614646912
1728735892396465700,9.321465576171875,9.95748519897461,0.10773907601833344,0.07182604819536209
1728735892406475300,9.331475341796875,9.952696800231934,0.08379705995321274,0.08619125932455063
1728735892416454700,9.34145458984375,9.955090522766113,0.09576806426048279,0.07661445438861847
1728735892426464500,9.351464599609375,9.952696800231934,0.11252748221158981,0.08379705995321274
1728735892436474000,9.36147412109375,9.964667320251465,0.10055647045373917,0.07900865375995636
1728735892446484000,9.37148388671875,9.952696800231934,0.08858546614646912,0.07661445438861847
1728735892456463000,9.381463134765625,9.940725326538086,0.09576806426048279,0.08858546614646912
1728735892466503400,9.39150341796875,9.95748519897461,0.10534487664699554,0.08619125932455063
1728735892476482800,9.40148291015625,9.952696800231934,0.09816227108240128,0.07900865375995636
1728735892486492400,9.411492431640625,9.950302124023438,0.10055647045373917,0.07661445438861847
1728735892496502300,9.421502197265625,9.964667320251465,0.10055647045373917,0.08619125932455063
1728735892506481400,9.4314814453125,9.950302124023438,0.10295066982507706,0.07900865375995636
1728735892516460800,9.441460693359375,9.947908401489258,0.10055647045373917,0.07422025501728058
1728735892526470400,9.451470458984375,9.93593692779541,0.090979665517807,0.07661445438861847
1728735892536480300,9.461480224609375,9.945513725280762,0.0933738648891449,0.08858546614646912
1728735892546459400,9.47145947265625,9.964667320251465,0.10534487664699554,0.08140286058187485
1728735892556438800,9.481438720703125,9.971850395202637,0.090979665517807,0.08379705995321274
1728735892566448600,9.49144873046875,9.938331604003906,0.0933738648891449,0.08379705995321274
1728735892576458200,9.501458251953125,9.950302124023438,0.08858546614646912,0.090979665517807
1728735892586437600,9.511437744140625,9.95748519897461,0.10295066982507706,0.08379705995321274
1728735892596416800,9.521416748046875,9.940725326538086,0.09576806426048279,0.07661445438861847
1728735892606426600,9.531426513671875,9.947908401489258,0.090979665517807,0.07661445438861847
1728735892616405800,9.54140576171875,9.945513725280762,0.10295066982507706,0.08619125932455063
1728735892626385200,9.55138525390625,9.95748519897461,0.10055647045373917,0.08858546614646912
1728735892636364300,9.5613642578125,9.955090522766113,0.0933738648891449,0.08140286058187485
1728735892646374100,9.5713740234375,9.952696800231934,0.0933738648891449,0.07182604819536209
1728735892656383700,9.5813837890625,9.95748519897461,0.10055647045373917,0.08379705995321274
1728735892666363100,9.591363037109375,9.959878921508789,0.1149216815829277,0.0933738648891449
1728735892676372700,9.601372802734375,9.955090522766113,0.09816227108240128,0.08140286058187485
1728735892686352100,9.61135205078125,9.938331604003906,0.090979665517807,0.07661445438861847
1728735892696361700,9.62136181640625,9.959878921508789,0.09816227108240128,0.07900865375995636
1728735892706341000,9.631341064453125,9.945513725280762,0.09816227108240128,0.08140286058187485
1728735892716320300,9.6413203125,9.952696800231934,0.10534487664699554,0.07661445438861847
1728735892726299600,9.651299560546875,9.955090522766113,0.09576806426048279,0.07422025501728058
1728735892736309200,9.661309326171875,9.945513725280762,0.10055647045373917,0.07900865375995636
1728735892746288600,9.67128857421875,9.955090522766113,0.10773907601833344,0.07182604819536209
1728735892756298500,9.681298583984375,9.955090522766113,0.10534487664699554,0.08140286058187485
1728735892766308000,9.69130810546875,9.952696800231934,0.09816227108240128,0.07422025501728058
1728735892776318000,9.70131787109375,9.950302124023438,0.090979665517807,0.08379705995321274
1728735892786327600,9.71132763671875,9.955090522766113,0.0933738648891449,0.08619125932455063
1728735892796337400,9.72133740234375,9.95748519897461,0.10055647045373917,0.08858546614646912
1728735892806347300,9.73134716796875,9.940725326538086,0.08619125932455063,0.07900865375995636
1728735892816356900,9.74135693359375,9.950302124023438,0.09816227108240128,0.07422025501728058
1728735892826336300,9.751336181640625,9.959878921508789,0.10534487664699554,0.08140286058187485
1728735892836315400,9.7613154296875,9.967061996459961,0.09816227108240128,0.07900865375995636
1728735892846325200,9.7713251953125,9.940725326538086,0.0933738648891449,0.07900865375995636
1728735892856304400,9.781304443359375,9.952696800231934,0.09816227108240128,0.08619125932455063
1728735892866283800,9.79128369140625,9.940725326538086,0.11252748221158981,0.08619125932455063
1728735892876293400,9.80129345703125,9.964667320251465,0.09576806426048279,0.07182604819536209
1728735892886272800,9.811272705078125,9.943120002746582,0.0933738648891449,0.06224924325942993
1728735892896252000,9.821251953125,9.967061996459961,0.09576806426048279,0.08379705995321274
1728735892906231300,9.831231201171875,9.955090522766113,0.10773907601833344,0.08379705995321274
1728735892916210400,9.84121044921875,9.974244117736816,0.11013327538967133,0.07422025501728058
1728735892926189800,9.85118994140625,9.940725326538086,0.08619125932455063,0.08379705995321274
1728735892936169000,9.8611689453125,9.950302124023438,0.10055647045373917,0.08858546614646912
1728735892946148400,9.8711484375,9.955090522766113,0.10773907601833344,0.06703764945268631
1728735892956158000,9.881157958984375,9.964667320251465,0.10534487664699554,0.08140286058187485
1728735892966137300,9.891137451171875,9.928754806518555,0.07900865375995636,0.07422025501728058
1728735892976116500,9.901116455078125,9.95748519897461,0.10055647045373917,0.09816227108240128
1728735892986095600,9.911095703125,9.962273597717285,0.11013327538967133,0.07900865375995636
1728735892996075000,9.921074951171875,9.95748519897461,0.0933738648891449,0.07422025501728058
1728735893006054100,9.93105419921875,9.955090522766113,0.090979665517807,0.06703764945268631
1728735893016033500,9.941033447265625,9.940725326538086,0.09576806426048279,0.09816227108240128
1728735893026012700,9.9510126953125,9.964667320251465,0.1173158809542656,0.07900865375995636
1728735893035992000,9.960991943359375,9.962273597717285,0.10773907601833344,0.08858546614646912
1728735893045971200,9.97097119140625,9.938331604003906,0.07900865375995636,0.07182604819536209
1728735893055950600,9.98095068359375,9.947908401489258,0.10295066982507706,0.07900865375995636
1728735893065929700,9.9909296875,9.955090522766113,0.1149216815829277,0.06703764945268631
1728735893075939600,10.000939697265625,9.945513725280762,0.090979665517807,0.08140286058187485
1728735893085918700,10.010918701171875,9.952696800231934,0.090979665517807,0.08140286058187485
1728735893095898000,10.020898193359375,9.947908401489258,0.09576806426048279,0.09576806426048279
1728735893105877200,10.030877197265625,9.976638793945312,0.10773907601833344,0.07422025501728058
1728735893115856400,10.0408564453125,9.947908401489258,0.08858546614646912,0.07900865375995636
1728735893125835800,10.050835693359375,9.943120002746582,0.07900865375995636,0.07661445438861847
1728735893135845400,10.060845458984375,9.962273597717285,0.10295066982507706,0.08379705995321274
1728735893145855200,10.070855224609375,9.962273597717285,0.11971008777618408,0.07900865375995636
1728735893155865000,10.080864990234375,9.952696800231934,0.10295066982507706,0.08140286058187485
1728735893165813800,10.090813720703125,9.945513725280762,0.08619125932455063,0.08379705995321274
1728735893175823600,10.10082373046875,9.950302124023438,0.09816227108240128,0.08379705995321274
1728735893185833200,10.110833251953125,9.96945571899414,0.10773907601833344,0.08379705995321274
1728735893195843000,10.120843017578125,9.938331604003906,0.08858546614646912,0.08858546614646912
1728735893205791700,10.130791748046875,9.945513725280762,0.08379705995321274,0.08619125932455063
1728735893215801600,10.140801513671875,9.95748519897461,0.0933738648891449,0.07182604819536209
1728735893225811200,10.150811279296875,9.947908401489258,0.10773907601833344,0.07422025501728058
1728735893235821000,10.160821044921875,9.95748519897461,0.09816227108240128,0.0933738648891449
1728735893245769700,10.170769775390625,9.952696800231934,0.08619125932455063,0.090979665517807
1728735893255779600,10.180779541015625,9.952696800231934,0.10534487664699554,0.08379705995321274
1728735893265789400,10.19078955078125,9.959878921508789,0.09816227108240128,0.08140286058187485
1728735893275799000,10.200799072265625,9.947908401489258,0.09816227108240128,0.08858546614646912
1728735893285747700,10.210747802734375,9.940725326538086,0.0933738648891449,0.08140286058187485
1728735893295757600,10.220757568359375,9.952696800231934,0.11252748221158981,0.08619125932455063
1728735893305767400,10.230767333984375,9.967061996459961,0.10534487664699554,0.08140286058187485
1728735893315777000,10.240777099609375,9.947908401489258,0.09816227108240128,0.07422025501728058
1728735893325787000,10.250786865234375,9.940725326538086,0.08858546614646912,0.0694318488240242
1728735893335796700,10.260796630859375,9.962273597717285,0.10773907601833344,0.07182604819536209
1728735893345745400,10.270745361328125,9.967061996459961,0.10534487664699554,0.08619125932455063
1728735893355755300,10.28075537109375,9.945513725280762,0.09576806426048279,0.09576806426048279
1728735893365764900,10.290764892578125,9.952696800231934,0.0933738648891449,0.07900865375995636
1728735893375774700,10.300774658203125,9.962273597717285,0.10295066982507706,0.0694318488240242
1728735893385723400,10.310723388671875,9.955090522766113,0.09576806426048279,0.07182604819536209
1728735893395733200,10.320733154296875,9.947908401489258,0.08619125932455063,0.07900865375995636
1728735893405742800,10.330742919921875,9.952696800231934,0.09576806426048279,0.07900865375995636
1728735893415722200,10.34072216796875,9.95748519897461,0.10295066982507706,0.08858546614646912
1728735893425701400,10.350701416015625,9.950302124023438,0.09576806426048279,0.08858546614646912
1728735893435680800,10.3606806640625,9.962273597717285,0.0933738648891449,0.08140286058187485
1728735893445690400,10.3706904296875,9.945513725280762,0.0933738648891449,0.05985504388809204
1728735893455669800,10.380669677734375,9.950302124023438,0.11013327538967133,0.07422025501728058
1728735893465649000,10.39064892578125,9.947908401489258,0.10295066982507706,0.08379705995321274
1728735893475628300,10.400628173828125,9.952696800231934,0.10295066982507706,0.08379705995321274
1728735893485638000,10.410637939453125,9.955090522766113,0.09816227108240128,0.07422025501728058
1728735893495647700,10.420647705078125,9.947908401489258,0.08619125932455063,0.08619125932455063
1728735893505627000,10.430626953125,9.947908401489258,0.10055647045373917,0.07661445438861847
1728735893515606300,10.440606201171875,9.952696800231934,0.10773907601833344,0.07661445438861847
1728735893525616000,10.4506162109375,9.962273597717285,0.10055647045373917,0.06703764945268631
1728735893535595300,10.46059521484375,9.952696800231934,0.09816227108240128,0.07900865375995636
1728735893545574400,10.470574462890625,9.95748519897461,0.10773907601833344,0.08140286058187485
1728735893555553800,10.4805537109375,9.952696800231934,0.09576806426048279,0.08619125932455063
1728735893565563400,10.4905634765625,9.955090522766113,0.10534487664699554,0.07900865375995636
1728735893575573200,10.5005732421875,9.945513725280762,0.09816227108240128,0.07900865375995636
1728735893585522000,10.51052197265625,9.945513725280762,0.09576806426048279,0.08140286058187485
1728735893595531800,10.52053173828125,9.947908401489258,0.10055647045373917,0.0694318488240242
1728735893605541600,10.530541748046875,9.952696800231934,0.10055647045373917,0.07661445438861847
1728735893615520800,10.540520751953125,9.947908401489258,0.08858546614646912,0.08858546614646912
1728735893625530600,10.550530517578125,9.95748519897461,0.11013327538967133,0.08379705995321274
1728735893635540200,10.560540283203125,9.947908401489258,0.10534487664699554,0.08858546614646912
1728735893645550000,10.570550048828125,9.95748519897461,0.090979665517807,0.07182604819536209
1728735893655529200,10.580529296875,9.945513725280762,0.090979665517807,0.07661445438861847
1728735893665539000,10.5905390625,9.947908401489258,0.10055647045373917,0.090979665517807
1728735893675549000,10.600548828125,9.945513725280762,0.10773907601833344,0.08140286058187485
1728735893685558500,10.61055859375,9.947908401489258,0.0933738648891449,0.07900865375995636
1728735893695538000,10.620537841796875,9.955090522766113,0.08619125932455063,0.08619125932455063
1728735893705578200,10.630578125,9.950302124023438,0.0933738648891449,0.08379705995321274
1728735893715557400,10.640557373046875,9.955090522766113,0.10295066982507706,0.07900865375995636
1728735893725567200,10.650567138671875,9.947908401489258,0.0933738648891449,0.08379705995321274
1728735893735576800,10.660576904296875,9.959878921508789,0.090979665517807,0.08619125932455063
1728735893745556200,10.67055615234375,9.938331604003906,0.09816227108240128,0.07900865375995636
1728735893755566000,10.680566162109375,9.952696800231934,0.10534487664699554,0.07422025501728058
1728735893765545200,10.690545166015625,9.955090522766113,0.08379705995321274,0.07182604819536209
1728735893775524400,10.7005244140625,9.938331604003906,0.08619125932455063,0.08619125932455063
1728735893785503700,10.710503662109375,9.95748519897461,0.09816227108240128,0.07661445438861847
1728735893795483000,10.72048291015625,9.947908401489258,0.09576806426048279,0.07661445438861847
1728735893805523200,10.730523193359375,9.93354320526123,0.090979665517807,0.07900865375995636
1728735893815502600,10.740502685546875,9.945513725280762,0.08619125932455063,0.08858546614646912
1728735893825512200,10.75051220703125,9.950302124023438,0.09576806426048279,0.07900865375995636
1728735893835491600,10.76049169921875,9.967061996459961,0.10055647045373917,0.08619125932455063
1728735893845470700,10.770470703125,9.943120002746582,0.090979665517807,0.07661445438861847
1728735893855450000,10.7804501953125,9.952696800231934,0.09576806426048279,0.08619125932455063
1728735893865429200,10.79042919921875,9.962273597717285,0.10534487664699554,0.07900865375995636
1728735893875408400,10.800408447265625,9.95748519897461,0.10295066982507706,0.08379705995321274
1728735893885418200,10.810418212890625,9.945513725280762,0.10055647045373917,0.07900865375995636
1728735893895428000,10.820427978515625,9.964667320251465,0.11013327538967133,0.07900865375995636
1728735893905376800,10.830376708984375,9.952696800231934,0.09576806426048279,0.07182604819536209
1728735893915386600,10.84038671875,9.952696800231934,0.0933738648891449,0.07182604819536209
1728735893925396200,10.850396240234375,9.945513725280762,0.09576806426048279,0.08619125932455063
1728735893935375600,10.860375732421875,9.95748519897461,0.10295066982507706,0.090979665517807
1728735893945354800,10.870354736328125,9.95748519897461,0.10773907601833344,0.07661445438861847
1728735893955364600,10.880364501953125,9.959878921508789,0.09816227108240128,0.07661445438861847
1728735893965374200,10.890374267578125,9.940725326538086,0.090979665517807,0.07900865375995636
1728735893975353600,10.900353515625,9.95748519897461,0.11013327538967133,0.07422025501728058
1728735893985363200,10.91036328125,9.962273597717285,0.09576806426048279,0.08379705995321274
1728735893995373000,10.920373046875,9.950302124023438,0.0933738648891449,0.08379705995321274
1728735894005383000,10.9303828125,9.945513725280762,0.10295066982507706,0.08140286058187485
1728735894015362000,10.940362060546875,9.952696800231934,0.10773907601833344,0.07422025501728058
1728735894025372000,10.950371826171875,9.950302124023438,0.09816227108240128,0.07422025501728058
1728735894035381500,10.960381591796875,9.959878921508789,0.090979665517807,0.08619125932455063
1728735894045330400,10.970330322265625,9.943120002746582,0.09576806426048279,0.07182604819536209
1728735894055340000,10.980340087890625,9.955090522766113,0.0933738648891449,0.07182604819536209
1728735894065350000,10.990349853515625,9.950302124023438,0.1149216815829277,0.08140286058187485
1728735894075359700,11.00035986328125,9.955090522766113,0.09816227108240128,0.08379705995321274
1728735894085339000,11.0103388671875,9.952696800231934,0.10534487664699554,0.08140286058187485
1728735894095348700,11.0203486328125,9.955090522766113,0.10773907601833344,0.07422025501728058
1728735894105358300,11.0303583984375,9.947908401489258,0.10295066982507706,0.09816227108240128
1728735894115368200,11.0403681640625,9.962273597717285,0.08858546614646912,0.08619125932455063
1728735894125347300,11.050347412109375,9.950302124023438,0.08140286058187485,0.07900865375995636
1728735894135326700,11.06032666015625,9.947908401489258,0.09576806426048279,0.08140286058187485
1728735894145336600,11.070336669921875,9.959878921508789,0.10295066982507706,0.08140286058187485
1728735894155346200,11.08034619140625,9.950302124023438,0.10055647045373917,0.08379705995321274
1728735894165356000,11.09035595703125,9.955090522766113,0.09816227108240128,0.08379705995321274
1728735894175365600,11.10036572265625,9.947908401489258,0.08619125932455063,0.08140286058187485
1728735894185345000,11.110344970703125,9.962273597717285,0.09576806426048279,0.08619125932455063
1728735894195324200,11.12032421875,9.952696800231934,0.0933738648891449,0.090979665517807
1728735894205334000,11.130333984375,9.950302124023438,0.09816227108240128,0.07422025501728058
1728735894215313200,11.140313232421875,9.952696800231934,0.09576806426048279,0.07422025501728058
1728735894225292500,11.15029248046875,9.955090522766113,0.09816227108240128,0.07182604819536209
1728735894235271700,11.160271728515625,9.947908401489258,0.08858546614646912,0.0933738648891449
1728735894245281500,11.170281494140625,9.945513725280762,0.090979665517807,0.07900865375995636
1728735894255291400,11.18029150390625,9.967061996459961,0.10295066982507706,0.07422025501728058
1728735894265270500,11.1902705078125,9.95748519897461,0.0933738648891449,0.08379705995321274
1728735894275280400,11.2002802734375,9.947908401489258,0.10773907601833344,0.08140286058187485
1728735894285259500,11.210259521484375,9.959878921508789,0.10055647045373917,0.08379705995321274
1728735894295239000,11.220239013671875,9.959878921508789,0.10773907601833344,0.07182604819536209
1728735894305218000,11.230218017578125,9.955090522766113,0.10055647045373917,0.07900865375995636
1728735894315228000,11.240227783203125,9.950302124023438,0.10055647045373917,0.07900865375995636
1728735894325207000,11.25020703125,9.952696800231934,0.09576806426048279,0.07422025501728058
1728735894335186400,11.2601865234375,9.962273597717285,0.09816227108240128,0.08379705995321274
1728735894345165600,11.27016552734375,9.952696800231934,0.090979665517807,0.07900865375995636
1728735894355144700,11.280144775390625,9.950302124023438,0.090979665517807,0.08619125932455063
1728735894365124000,11.2901240234375,9.959878921508789,0.09816227108240128,0.07422025501728058
1728735894375133700,11.3001337890625,9.95748519897461,0.10534487664699554,0.0933738648891449
1728735894385113000,11.310113037109375,9.947908401489258,0.0933738648891449,0.08619125932455063
1728735894395092200,11.32009228515625,9.950302124023438,0.09816227108240128,0.08140286058187485
1728735894405071600,11.330071533203125,9.945513725280762,0.10295066982507706,0.08140286058187485
1728735894415081200,11.340081298828125,9.959878921508789,0.09816227108240128,0.07661445438861847
1728735894425091000,11.350091064453125,9.952696800231934,0.090979665517807,0.090979665517807
1728735894435101000,11.360100830078125,9.952696800231934,0.10055647045373917,0.07900865375995636
1728735894445110500,11.370110595703125,9.945513725280762,0.09576806426048279,0.07900865375995636
1728735894455120400,11.380120361328125,9.952696800231934,0.09816227108240128,0.08140286058187485
1728735894465099500,11.390099609375,9.95748519897461,0.09816227108240128,0.08379705995321274
1728735894475079000,11.400078857421875,9.959878921508789,0.09576806426048279,0.08379705995321274
1728735894485088800,11.4100888671875,9.952696800231934,0.08379705995321274,0.08619125932455063
1728735894495068000,11.42006787109375,9.967061996459961,0.10055647045373917,0.07900865375995636
1728735894505047000,11.430047119140625,9.945513725280762,0.0933738648891449,0.08619125932455063
1728735894515057000,11.440056884765625,9.95748519897461,0.10055647045373917,0.08379705995321274
1728735894525036300,11.450036376953125,9.947908401489258,0.10534487664699554,0.07900865375995636
1728735894535015400,11.460015380859375,9.950302124023438,0.09816227108240128,0.07661445438861847
1728735894544994600,11.46999462890625,9.952696800231934,0.0933738648891449,0.08619125932455063
1728735894554974000,11.479973876953125,9.959878921508789,0.10295066982507706,0.07900865375995636
1728735894564953000,11.489953125,9.952696800231934,0.09576806426048279,0.08619125932455063
1728735894574963000,11.499962890625,9.947908401489258,0.08858546614646912,0.08140286058187485
1728735894584942000,11.509942138671875,9.943120002746582,0.090979665517807,0.08140286058187485
1728735894594952000,11.519951904296875,9.950302124023438,0.10534487664699554,0.08379705995321274
1728735894604900600,11.529900634765625,9.947908401489258,0.10055647045373917,0.08619125932455063
1728735894614910500,11.539910400390625,9.945513725280762,0.10055647045373917,0.07900865375995636
1728735894624920300,11.54992041015625,9.854534149169922,0.10055647045373917,0.07900865375995636
1728735894634930000,11.559929931640625,9.959878921508789,0.090979665517807,0.08140286058187485
1728735894644909300,11.569909423828125,9.959878921508789,0.0933738648891449,0.08140286058187485
1728735894654888400,11.579888427734375,9.931148529052734,0.10295066982507706,0.090979665517807
1728735894664898300,11.589898193359375,9.962273597717285,0.10055647045373917,0.090979665517807
1728735894674908000,11.599907958984375,9.967061996459961,0.09816227108240128,0.08379705995321274
1728735894684917800,11.609917724609375,9.931148529052734,0.08858546614646912,0.07661445438861847
1728735894694927600,11.619927734375,9.967061996459961,0.0933738648891449,0.08619125932455063
1728735894704876300,11.629876220703125,9.955090522766113,0.10055647045373917,0.07422025501728058
1728735894714886100,11.63988623046875,9.940725326538086,0.09816227108240128,0.08379705995321274
1728735894724895700,11.649895751953125,9.952696800231934,0.09816227108240128,0.08379705995321274
1728735894734905600,11.659905517578125,9.955090522766113,0.11252748221158981,0.07900865375995636
1728735894744884700,11.669884765625,9.95748519897461,0.10055647045373917,0.08379705995321274
1728735894754864000,11.679864013671875,9.952696800231934,0.0933738648891449,0.08619125932455063
1728735894764873700,11.689873779296875,9.952696800231934,0.08140286058187485,0.08619125932455063
1728735894774883600,11.699883544921875,9.928754806518555,0.10295066982507706,0.07182604819536209
1728735894784862700,11.70986279296875,9.947908401489258,0.09816227108240128,0.08619125932455063
1728735894794842000,11.719842041015625,9.955090522766113,0.090979665517807,0.08619125932455063
1728735894804852000,11.72985205078125,9.945513725280762,0.0933738648891449,0.08858546614646912
1728735894814861600,11.739861572265625,9.945513725280762,0.090979665517807,0.08379705995321274
1728735894824841000,11.749841064453125,9.945513725280762,0.10295066982507706,0.08140286058187485
1728735894834850600,11.7598505859375,9.945513725280762,0.09576806426048279,0.07900865375995636
1728735894844830000,11.769829833984375,9.943120002746582,0.09576806426048279,0.08379705995321274
1728735894854839600,11.779839599609375,9.955090522766113,0.10773907601833344,0.07182604819536209
1728735894864819000,11.78981884765625,9.959878921508789,0.11252748221158981,0.08379705995321274
1728735894874798000,11.799798095703125,9.947908401489258,0.09816227108240128,0.07900865375995636
1728735894884777500,11.809777587890625,9.952696800231934,0.08619125932455063,0.08619125932455063
1728735894894787000,11.819787109375,9.945513725280762,0.10534487664699554,0.08140286058187485
1728735894904766500,11.829766357421875,9.947908401489258,0.10534487664699554,0.08140286058187485
1728735894914776000,11.839776123046875,9.952696800231934,0.08858546614646912,0.07900865375995636
1728735894924816400,11.84981640625,9.952696800231934,0.09576806426048279,0.08858546614646912
1728735894934826200,11.859826171875,9.947908401489258,0.10055647045373917,0.08140286058187485
1728735894944805400,11.869805419921875,9.943120002746582,0.10295066982507706,0.07182604819536209
1728735894954815200,11.879815185546875,9.950302124023438,0.10055647045373917,0.07422025501728058
1728735894964794400,11.88979443359375,9.93354320526123,0.090979665517807,0.07661445438861847
1728735894974773800,11.899773681640625,9.964667320251465,0.09816227108240128,0.07661445438861847
1728735894984753000,11.9097529296875,9.945513725280762,0.09816227108240128,0.0694318488240242
1728735894994762800,11.9197626953125,9.940725326538086,0.090979665517807,0.07900865375995636
1728735895004772600,11.929772705078125,9.962273597717285,0.09576806426048279,0.08379705995321274
1728735895014782200,11.9397822265625,9.967061996459961,0.0933738648891449,0.08379705995321274
1728735895024761600,11.94976171875,9.945513725280762,0.09816227108240128,0.0694318488240242
1728735895034740700,11.95974072265625,9.947908401489258,0.0933738648891449,0.07422025501728058
1728735895044720000,11.96972021484375,9.945513725280762,0.10295066982507706,0.08619125932455063
1728735895054729700,11.979729736328125,9.947908401489258,0.09816227108240128,0.07900865375995636
1728735895064739600,11.989739501953125,9.947908401489258,0.090979665517807,0.08379705995321274
1728735895074749200,11.999749267578125,9.945513725280762,0.10055647045373917,0.08140286058187485
1728735895084759000,12.009759033203125,9.952696800231934,0.090979665517807,0.07182604819536209
1728735895094738400,12.019738525390625,9.967061996459961,0.09576806426048279,0.08379705995321274
1728735895104717600,12.029717529296875,9.967061996459961,0.09576806426048279,0.08140286058187485
1728735895114696700,12.03969677734375,9.959878921508789,0.08619125932455063,0.0933738648891449
1728735895124676000,12.049676025390625,9.964667320251465,0.08858546614646912,0.08619125932455063
1728735895134686000,12.05968603515625,9.950302124023438,0.0933738648891449,0.07661445438861847
1728735895144695600,12.069695556640625,9.945513725280762,0.10055647045373917,0.07661445438861847
1728735895154705400,12.079705322265625,9.952696800231934,0.09816227108240128,0.08619125932455063
1728735895164715000,12.089715087890625,9.938331604003906,0.10055647045373917,0.07661445438861847
1728735895174694400,12.0996943359375,9.945513725280762,0.10773907601833344,0.08379705995321274
1728735895184673500,12.109673583984375,9.959878921508789,0.10534487664699554,0.08140286058187485
1728735895194653000,12.11965283203125,9.940725326538086,0.09576806426048279,0.07661445438861847
1728735895204632000,12.129632080078125,9.959878921508789,0.10295066982507706,0.08619125932455063
1728735895214642000,12.139641845703125,9.952696800231934,0.09576806426048279,0.08619125932455063
1728735895224682200,12.14968212890625,9.947908401489258,0.09816227108240128,0.08379705995321274
1728735895234661400,12.159661376953125,9.962273597717285,0.10055647045373917,0.08619125932455063
1728735895244671200,12.169671142578125,9.890447616577148,0.10295066982507706,0.07182604819536209
1728735895254650400,12.179650390625,9.890447616577148,0.0933738648891449,0.08619125932455063
1728735895264629800,12.189629638671875,9.93354320526123,0.0933738648891449,0.0933738648891449
1728735895274609000,12.19960888671875,9.919178009033203,0.090979665517807,0.07900865375995636
1728735895284588300,12.20958837890625,9.926360130310059,0.08619125932455063,0.0933738648891449
1728735895294598000,12.219597900390625,9.947908401489258,0.07900865375995636,0.10055647045373917
1728735895304607700,12.229607666015625,9.923966407775879,0.090979665517807,0.06703764945268631
1728735895314617300,12.239617431640625,9.96945571899414,0.10295066982507706,0.07422025501728058
1728735895324627200,12.249627197265625,9.93593692779541,0.10773907601833344,0.06464344263076782
1728735895334606600,12.259606689453125,9.964667320251465,0.10295066982507706,0.0933738648891449
1728735895344585700,12.269585693359375,9.955090522766113,0.090979665517807,0.07422025501728058
1728735895354564900,12.27956494140625,9.945513725280762,0.0933738648891449,0.07900865375995636
1728735895364544300,12.289544189453125,9.959878921508789,0.08619125932455063,0.090979665517807
1728735895374523400,12.2995234375,9.945513725280762,0.08858546614646912,0.08858546614646912
1728735895384502800,12.309502685546875,9.976638793945312,0.10295066982507706,0.090979665517807
1728735895394482000,12.31948193359375,9.943120002746582,0.11013327538967133,0.0694318488240242
1728735895404461300,12.32946142578125,9.971850395202637,0.11252748221158981,0.07661445438861847
1728735895414471000,12.339470947265625,9.959878921508789,0.0933738648891449,0.07182604819536209
1728735895424450300,12.3494501953125,9.964667320251465,0.09576806426048279,0.08858546614646912
1728735895434460000,12.3594599609375,9.947908401489258,0.08858546614646912,0.07661445438861847
1728735895444469800,12.3694697265625,9.95748519897461,0.08858546614646912,0.07900865375995636
1728735895454449000,12.379448974609375,9.945513725280762,0.08858546614646912,0.0933738648891449
1728735895464428300,12.38942822265625,9.959878921508789,0.10534487664699554,0.0694318488240242
1728735895474407400,12.399407470703125,9.947908401489258,0.09576806426048279,0.07900865375995636
1728735895484386800,12.40938671875,9.938331604003906,0.09816227108240128,0.07422025501728058
1728735895494366000,12.419365966796875,9.952696800231934,0.10534487664699554,0.07182604819536209
1728735895504345300,12.429345458984375,9.959878921508789,0.09816227108240128,0.08858546614646912
1728735895514355000,12.43935498046875,9.964667320251465,0.11013327538967133,0.08379705995321274
1728735895524334300,12.449334228515625,9.945513725280762,0.08379705995321274,0.10773907601833344
1728735895534313500,12.4593134765625,9.971850395202637,0.09576806426048279,0.090979665517807
1728735895544292900,12.46929296875,9.943120002746582,0.0933738648891449,0.08619125932455063
1728735895554302500,12.479302490234375,9.955090522766113,0.09576806426048279,0.07182604819536209
1728735895564281900,12.48928173828125,9.945513725280762,0.09816227108240128,0.07661445438861847
1728735895574261000,12.499260986328125,9.955090522766113,0.10055647045373917,0.08140286058187485
1728735895584240400,12.509240478515625,9.947908401489258,0.09816227108240128,0.07900865375995636
1728735895594219500,12.519219482421875,9.952696800231934,0.08858546614646912,0.07661445438861847
1728735895604229400,12.5292294921875,9.93593692779541,0.090979665517807,0.09816227108240128
1728735895614208500,12.53920849609375,9.959878921508789,0.09816227108240128,0.08858546614646912
1728735895624188000,12.54918798828125,9.943120002746582,0.0933738648891449,0.07900865375995636
1728735895634197500,12.559197509765625,9.943120002746582,0.10295066982507706,0.07661445438861847
1728735895644177000,12.569177001953125,9.95748519897461,0.09816227108240128,0.07422025501728058
1728735895654156000,12.579156005859375,9.938331604003906,0.10055647045373917,0.08379705995321274
1728735895664135200,12.58913525390625,9.959878921508789,0.09816227108240128,0.08140286058187485
1728735895674145000,12.59914501953125,9.938331604003906,0.10534487664699554,0.07900865375995636
1728735895684124400,12.60912451171875,9.971850395202637,0.08379705995321274,0.09576806426048279
1728735895694103600,12.619103515625,9.959878921508789,0.09816227108240128,0.08379705995321274
1728735895704082700,12.629082763671875,9.959878921508789,0.09576806426048279,0.08619125932455063
1728735895714062000,12.63906201171875,9.95748519897461,0.0933738648891449,0.08140286058187485
1728735895724041200,12.649041259765625,9.962273597717285,0.08858546614646912,0.08379705995321274
1728735895734051000,12.659051025390625,9.945513725280762,0.0933738648891449,0.07422025501728058
1728735895744030200,12.6690302734375,9.95748519897461,0.10055647045373917,0.07661445438861847
1728735895754009600,12.679009521484375,9.931148529052734,0.08858546614646912,0.09576806426048279
1728735895763988700,12.68898876953125,9.945513725280762,0.08619125932455063,0.07900865375995636
1728735895773998600,12.69899853515625,9.952696800231934,0.090979665517807,0.09576806426048279
1728735895783977700,12.708977783203125,9.952696800231934,0.11252748221158981,0.08140286058187485
1728735895793957000,12.71895703125,9.947908401489258,0.08619125932455063,0.07661445438861847
1728735895803936300,12.728936279296875,9.955090522766113,0.10773907601833344,0.06224924325942993
1728735895813946000,12.738946044921875,9.959878921508789,0.11013327538967133,0.05746084079146385
1728735895823956000,12.7489560546875,9.945513725280762,0.09576806426048279,0.07182604819536209
