time,seconds_elapsed,z,y,x
1728893471707597800,0.096597900390625,8.99740982055664,4.3622355461120605,0.811634361743927
1728893471717577200,0.1065771484375,8.954314231872559,4.331110954284668,0.7757213711738586
1728893471727556400,0.116556396484375,8.559270858764648,4.271255970001221,0.21308395266532898
1728893471737566200,0.126566162109375,9.404424667358398,4.661510944366455,0.7469909191131592
1728893471747575800,0.136575927734375,9.282320022583008,4.402936935424805,0.5578489899635315
1728893471757555200,0.14655517578125,8.96389102935791,4.273650169372559,0.6847416758537292
1728893471767534300,0.156534423828125,8.827422142028809,4.134786128997803,0.7852981686592102
1728893471777544200,0.166544189453125,8.9064302444458,4.082113742828369,0.9313444495201111
1728893471787523300,0.1765234375,8.889671325683594,4.086902141571045,0.993593692779541
1728893471797502700,0.186502685546875,8.769960403442383,4.20421838760376,1.0055646896362305
1728893471807481900,0.19648193359375,8.736441612243652,4.383783340454102,0.8547300100326538
1728893471817461200,0.206461181640625,8.808267593383789,4.733336925506592,0.6248866319656372
1728893471827440400,0.2164404296875,9.009381294250488,4.841075897216797,0.3256114423274994
1728893471837419800,0.226419677734375,8.990227699279785,4.836287498474121,0.21547815203666687
1728893471847399000,0.23639892578125,9.05247688293457,4.78122091293335,0.24420857429504395
1728893471857378300,0.24637841796875,9.181763648986816,4.632780075073242,0.33039984107017517
1728893471867357400,0.256357421875,9.10993766784668,4.417302131652832,0.4357447028160095
1728893471877367300,0.2663671875,8.925583839416504,4.23773717880249,0.545877993106842
1728893471887377000,0.276376953125,8.87291145324707,4.072536945343018,0.6392518281936646
1728893471897386800,0.28638671875,8.927978515625,3.9240965843200684,0.7493851184844971
1728893471907396600,0.296396728515625,8.983044624328613,4.005499362945557,0.8595184087753296
1728893471917406200,0.30640625,8.971074104309082,4.1156325340271,0.7972691655158997
1728893471927385600,0.316385498046875,8.810662269592285,4.311957359313965,0.6991068720817566
1728893471937395200,0.326395263671875,8.738836288452148,4.5154643058776855,0.6248866319656372
1728893471947374600,0.33637451171875,8.880094528198242,4.659116744995117,0.5554547905921936
1728893471957353700,0.346353759765625,8.916007041931152,4.637568473815918,0.4620809257030487
1728893471967333000,0.3563330078125,8.80587387084961,4.592078685760498,0.45250412821769714
1728893471977312300,0.366312255859375,8.892065048217773,4.60165548324585,0.4118026793003082
1728893471987291400,0.37629150390625,8.927978515625,4.594472885131836,0.3663128614425659
1728893471997301200,0.38630126953125,8.925583839416504,4.529829502105713,0.35913026332855225
1728893472007311000,0.39631103515625,8.882488250732422,4.4939165115356445,0.3878606855869293
1728893472017320700,0.40632080078125,8.83939266204834,4.513070106506348,0.4141969084739685
1728893472027300000,0.416300048828125,8.810662269592285,4.534617900848389,0.4357447028160095
1728893472037279200,0.426279296875,8.722076416015625,4.55616569519043,0.47165772318840027
1728893472047258600,0.436258544921875,8.7484130859375,4.580107688903809,0.49559974670410156
1728893472057237800,0.44623779296875,8.868123054504395,4.558559894561768,0.524330198764801
1728893472067217200,0.456217041015625,8.880094528198242,4.5825018882751465,0.5817909836769104
1728893472077196300,0.4661962890625,8.904036521911621,4.594472885131836,0.6009446382522583
1728893472087175400,0.476175537109375,8.901641845703125,4.541800498962402,0.5746083855628967
1728893472097185300,0.486185302734375,8.89445972442627,4.548983097076416,0.569819986820221
1728893472107164700,0.49616455078125,8.779537200927734,4.541800498962402,0.5434837937355042
1728893472117174300,0.50617431640625,8.736441612243652,4.513070106506348,0.5339069962501526
1728893472127153700,0.516153564453125,8.710105895996094,4.486733913421631,0.5530605912208557
1728893472137132800,0.5261328125,8.645462036132812,4.51067590713501,0.5506663918495178
1728893472147112200,0.5361123046875,8.583212852478027,4.5394062995910645,0.5386953949928284
1728893472157121800,0.546121826171875,8.633491516113281,4.565742492675781,0.5410895943641663
1728893472167101200,0.55610107421875,8.62630844116211,4.613626480102539,0.5386953949928284
1728893472177080300,0.566080322265625,8.647856712341309,4.651933670043945,0.5386953949928284
1728893472187059500,0.5760595703125,8.65982723236084,4.649539470672607,0.5315127968788147
1728893472197038800,0.586038818359375,8.645462036132812,4.618414878845215,0.5339069962501526
1728893472207018000,0.59601806640625,8.683769226074219,4.565742492675781,0.5386953949928284
1728893472216997400,0.605997314453125,8.7268648147583,4.520252704620361,0.5530605912208557
1728893472226976500,0.6159765625,8.635885238647461,4.458003520965576,0.5770025849342346
1728893472236956000,0.625955810546875,8.604761123657227,4.462791919708252,0.5746083855628967
1728893472246935000,0.63593505859375,8.667010307312012,4.520252704620361,0.5674257874488831
1728893472256914400,0.64591455078125,8.667010307312012,4.565742492675781,0.545877993106842
1728893472266893600,0.6558935546875,8.650250434875488,4.584896087646484,0.5051765441894531
1728893472276903400,0.6659033203125,8.681375503540039,4.616020679473877,0.5003881454467773
1728893472286882600,0.675882568359375,8.700529098510742,4.654327869415283,0.47165772318840027
1728893472296892400,0.685892333984375,8.803479194641113,4.639962673187256,0.42856210470199585
1728893472306902000,0.695902099609375,8.913613319396973,4.587290287017822,0.4620809257030487
1728893472316911900,0.705911865234375,8.908824920654297,4.508281707763672,0.5434837937355042
1728893472326891000,0.71589111328125,8.899248123168945,4.436455726623535,0.5961562395095825
1728893472336870400,0.725870361328125,8.887276649475098,4.424484729766846,0.6200982332229614
1728893472346849500,0.735849609375,8.892065048217773,4.422090530395508,0.6272808313369751
1728893472356829000,0.745828857421875,8.947132110595703,4.412513732910156,0.6105214357376099
1728893472366808000,0.75580810546875,8.944737434387207,4.441244125366211,0.5889736413955688
1728893472376818000,0.76581787109375,8.908824920654297,4.438849925994873,0.5793967843055725
1728893472386766600,0.7757666015625,8.83699893951416,4.491522312164307,0.5674257874488831
1728893472396776400,0.7857763671875,8.827422142028809,4.565742492675781,0.545877993106842
1728893472406755600,0.795755615234375,8.757989883422852,4.551377296447754,0.5410895943641663
1728893472416765400,0.805765380859375,8.769960403442383,4.4939165115356445,0.5410895943641663
1728893472426744600,0.81574462890625,8.822632789611816,4.496310710906982,0.5530605912208557
1728893472436754400,0.82575439453125,8.779537200927734,4.503493309020996,0.5363011956214905
1728893472446733600,0.835733642578125,8.746018409729004,4.508281707763672,0.5315127968788147
1728893472456743400,0.845743408203125,8.774748802185059,4.4939165115356445,0.507570743560791
1728893472466753300,0.855753173828125,8.719682693481445,4.448426723480225,0.5171475410461426
1728893472476763000,0.865762939453125,8.712499618530273,4.431667327880859,0.5434837937355042
1728893472486742300,0.8757421875,8.688557624816895,4.438849925994873,0.5386953949928284
1728893472496721400,0.885721435546875,8.676587104797363,4.441244125366211,0.5267243981361389
1728893472506700800,0.89570068359375,8.643068313598633,4.46518611907959,0.5099649429321289
1728893472516680000,0.905679931640625,8.662221908569336,4.474762916564941,0.4836287498474121
1728893472526659000,0.9156591796875,8.743624687194824,4.460397720336914,0.4620809257030487
1728893472536638500,0.925638427734375,8.753201484680176,4.422090530395508,0.4596867263317108
1728893472546617600,0.93561767578125,8.683769226074219,4.321534156799316,0.4908113479614258
1728893472556627500,0.94562744140625,8.513781547546387,4.273650169372559,0.5554547905921936
1728893472566606600,0.955606689453125,9.059659004211426,4.441244125366211,0.47165772318840027
1728893472576586000,0.9655859375,9.155426979064941,4.5154643058776855,0.4213795065879822
1728893472586595600,0.975595703125,9.030928611755371,4.5394062995910645,0.4213795065879822
1728893472596575000,0.985574951171875,9.133879661560059,4.489128112792969,0.43335050344467163
1728893472606554000,0.99555419921875,9.14585018157959,4.424484729766846,0.4429273009300232
1728893472616564000,1.00556396484375,9.105149269104004,4.326322555541992,0.49799394607543945
1728893472626543000,1.015543212890625,9.138668060302734,4.367023944854736,0.44771572947502136
1728893472636553000,1.025552978515625,9.198522567749023,4.371812343597412,0.40940847992897034
1728893472646532400,1.035532470703125,9.121908187866211,4.309563159942627,0.40701428055763245
1728893472656511500,1.045511474609375,9.069235801696777,4.314351558685303,0.4141969084739685
1728893472666490600,1.05549072265625,9.006986618041992,4.355052947998047,0.3998316824436188
1728893472676470000,1.065469970703125,8.944737434387207,4.4077253341674805,0.3878606855869293
1728893472686449200,1.07544921875,8.920795440673828,4.424484729766846,0.40222588181495667
1728893472696428500,1.085428466796875,8.848969459533691,4.378994941711426,0.45489832758903503
1728893472706407700,1.09540771484375,8.813055992126465,4.321534156799316,0.49559974670410156
1728893472716417500,1.10541748046875,8.801085472106934,4.268861770629883,0.524330198764801
1728893472726366200,1.1153662109375,8.786720275878906,4.268861770629883,0.5291185975074768
1728893472736376000,1.1253759765625,8.789113998413086,4.247313976287842,0.5099649429321289
1728893472746355200,1.135355224609375,8.734047889709473,4.292803764343262,0.44771572947502136
1728893472756365000,1.145364990234375,8.65743350982666,4.3406877517700195,0.3998316824436188
1728893472766374700,1.155374755859375,9.002198219299316,4.479551315307617,0.3663128614425659
1728893472776384500,1.165384521484375,8.9064302444458,4.469974517822266,0.3447650372982025
1728893472786364000,1.175364013671875,9.01895809173584,4.357447147369385,0.3447650372982025
1728893472796343000,1.185343017578125,9.040505409240723,4.252102375030518,0.4141969084739685
1728893472806322200,1.195322265625,9.093177795410156,4.211400985717773,0.49559974670410156
1728893472816301600,1.205301513671875,9.129091262817383,4.189853191375732,0.5434837937355042
1728893472826280700,1.21528076171875,9.253589630126953,4.3406877517700195,0.4405331015586853
1728893472836290600,1.22529052734375,9.26795482635498,4.434061527252197,0.44771572947502136
1728893472846269700,1.235269775390625,9.105149269104004,4.331110954284668,0.4596867263317108
1728893472856279600,1.245279541015625,9.040505409240723,4.333505153656006,0.4620809257030487
1728893472866228200,1.255228271484375,9.002198219299316,4.410119533538818,0.4620809257030487
1728893472876238000,1.265238037109375,8.98543930053711,4.460397720336914,0.45010992884635925
1728893472886248000,1.275248046875,8.9064302444458,4.422090530395508,0.4357447028160095
1728893472896257500,1.285257568359375,8.841787338256836,4.431667327880859,0.45010992884635925
1728893472906237000,1.29523681640625,8.765172004699707,4.431667327880859,0.4884171485900879
1728893472916216000,1.305216064453125,8.710105895996094,4.431667327880859,0.48602294921875
1728893472926195200,1.3151953125,8.844181060791016,4.436455726623535,0.4692635238170624
1728893472936174600,1.325174560546875,8.89445972442627,4.424484729766846,0.49320554733276367
1728893472946153700,1.33515380859375,8.640673637390137,4.381389141082764,0.5195417404174805
1728893472956133000,1.345133056640625,8.611943244934082,4.367023944854736,0.5123591423034668
1728893472966112300,1.3551123046875,8.803479194641113,4.4077253341674805,0.5195417404174805
1728893472976122000,1.3651220703125,8.779537200927734,4.455609321594238,0.5027823448181152
1728893472986101200,1.375101318359375,8.825027465820312,4.496310710906982,0.45250412821769714
1728893472996080600,1.38508056640625,8.93037223815918,4.522646903991699,0.37828385829925537
1728893473006059800,1.395059814453125,9.08838939666748,4.577713489532471,0.3423708379268646
1728893473016069600,1.405069580078125,8.99740982055664,4.548983097076416,0.35673606395721436
1728893473026048800,1.415048828125,8.834604263305664,4.49870491027832,0.395043283700943
1728893473036058600,1.42505859375,8.71728801727295,4.4508209228515625,0.45489832758903503
1728893473046037800,1.435037841796875,8.71489429473877,4.446032524108887,0.5123591423034668
1728893473056017200,1.44501708984375,8.700529098510742,4.489128112792969,0.5291185975074768
1728893473066026800,1.45502685546875,8.681375503540039,4.410119533538818,0.5674257874488831
1728893473076036600,1.46503662109375,8.597578048706055,4.661510944366455,0.4620809257030487
1728893473086016000,1.47501611328125,8.5903959274292,4.747702121734619,0.33758243918418884
1728893473096025600,1.485025634765625,8.513781547546387,4.709394931793213,0.35913026332855225
1728893473106005000,1.4950048828125,8.494627952575684,4.606443881988525,0.45489832758903503
1728893473116014600,1.5050146484375,8.451532363891602,4.575319290161133,0.47884035110473633
1728893473125994000,1.514993896484375,8.451532363891602,4.6255974769592285,0.44771572947502136
1728893473136003600,1.525003662109375,8.698134422302246,4.587290287017822,0.3734954595565796
1728893473145983000,1.53498291015625,8.865729331970215,4.4939165115356445,0.3878606855869293
1728893473155962000,1.544962158203125,8.846575736999512,4.467580318450928,0.4189853072166443
1728893473165941500,1.55494140625,8.80587387084961,4.228160381317139,0.8523358106613159
1728893473175920600,1.564920654296875,8.848969459533691,4.065354347229004,0.7541735172271729
1728893473185900000,1.574900146484375,9.095572471618652,4.331110954284668,0.6775590777397156
1728893473195879200,1.584879150390625,9.208099365234375,4.010287761688232,0.7781155705451965
1728893473205858300,1.5948583984375,9.20091724395752,3.9624037742614746,0.6823474764823914
1728893473215837700,1.604837646484375,9.047688484191895,3.754108190536499,0.8547300100326538
1728893473225816800,1.61481689453125,8.741230010986328,3.40216064453125,1.2114660739898682
1728893473235796200,1.624796142578125,8.710105895996094,3.7852327823638916,0.8667010068893433
1728893473245775400,1.634775390625,8.834604263305664,3.907337188720703,0.706289529800415
1728893473255785200,1.64478515625,8.87051773071289,3.8307228088378906,0.8882488012313843
1728893473265794800,1.654794921875,9.102754592895508,4.000710964202881,0.6943184733390808
1728893473275804700,1.6648046875,9.320627212524414,4.1611223220825195,0.5937620401382446
1728893473285784000,1.6747841796875,9.301473617553711,4.247313976287842,0.5889736413955688
1728893473295793700,1.684793701171875,9.117119789123535,4.252102375030518,0.6631938815116882
1728893473305803500,1.694803466796875,9.217676162719727,4.10366153717041,0.7158663272857666
1728893473315782700,1.70478271484375,9.23682975769043,4.094084739685059,0.7613561153411865
1728893473325762000,1.714761962890625,9.014169692993164,4.106055736541748,0.706289529800415
1728893473335741200,1.7247412109375,9.057265281677246,4.19224739074707,0.6512228846549988
1728893473345720600,1.734720458984375,9.093177795410156,4.2329487800598145,0.49320554733276367
1728893473355699700,1.74469970703125,8.889671325683594,4.24970817565918,0.38546648621559143
1728893473365618000,1.754617919921875,8.81784439086914,4.125209331512451,0.3878606855869293
1728893473375627800,1.764627685546875,9.215282440185547,3.9647979736328125,0.44771572947502136
1728893473385637400,1.774637451171875,9.241618156433105,3.7828385829925537,0.5123591423034668
1728893473395647200,1.784647216796875,9.181763648986816,3.8283286094665527,0.646434485912323
1728893473405626400,1.79462646484375,9.047688484191895,3.9695863723754883,0.6440402865409851
1728893473415605800,1.804605712890625,9.131484985351562,4.110844135284424,0.6871358752250671
1728893473425585000,1.8145849609375,9.239224433898926,4.1180267333984375,0.706289529800415
1728893473435564300,1.824564208984375,9.157821655273438,4.185064792633057,0.6775590777397156
1728893473445543400,1.83454345703125,8.978256225585938,4.302380561828613,0.5650315880775452
1728893473455522800,1.844522705078125,8.966285705566406,4.376600742340088,0.26815059781074524
1728893473465471500,1.854471435546875,8.983044624328613,4.410119533538818,0.016759412363171577
1728893473475481000,1.864481201171875,8.9064302444458,4.462791919708252,-0.24181437492370605
1728893473485491000,1.874490966796875,8.956708908081055,4.6255974769592285,-0.2992752194404602
1728893473495500800,1.884500732421875,9.083600997924805,4.704606533050537,-0.33758243918418884
1728893473505480000,1.89447998046875,9.14345645904541,4.642356872558594,-0.26336219906806946
1728893473515459300,1.904459228515625,8.815450668334961,4.3191399574279785,-0.11013327538967133
1728893473525438500,1.9144384765625,8.396465301513672,4.0749311447143555,0.2106897532939911
1728893473535417900,1.92441796875,7.975085735321045,3.8570590019226074,0.4357447028160095
1728893473545397000,1.93439697265625,7.860164165496826,3.7038300037384033,0.5626373887062073
1728893473555376000,1.944376220703125,7.960720539093018,3.643975019454956,0.730231523513794
1728893473565355500,1.95435546875,8.729259490966797,3.4404678344726562,0.47165772318840027
1728893473575334700,1.964334716796875,9.744400978088379,3.220201253890991,0.15562310814857483
1728893473585314000,1.97431396484375,9.68933391571045,3.4141316413879395,0.14365209639072418
1728893473595323600,1.98432373046875,8.832210540771484,3.6152446269989014,0.23942017555236816
1728893473605303000,1.994302978515625,7.3693528175354,3.5960910320281982,0.19632454216480255
1728893473615312600,2.004312744140625,9.423578262329102,3.4380736351013184,0.35673606395721436
1728893473625292000,2.0142919921875,10.654197692871094,3.246537446975708,0.5434837937355042
1728893473635271200,2.024271240234375,10.225635528564453,3.450044631958008,0.5578489899635315
1728893473645250600,2.03425048828125,9.99339771270752,3.732560396194458,0.28730419278144836
1728893473655260200,2.04426025390625,9.921571731567383,3.909731388092041,0.08379705995321274
1728893473665239600,2.054239501953125,9.710882186889648,3.9839515686035156,-0.011971008032560349
1728893473675218700,2.06421875,9.605537414550781,3.864241600036621,-0.043095629662275314
1728893473685198000,2.074197998046875,9.524134635925293,3.6727054119110107,0.05267243832349777
1728893473695177200,2.08417724609375,9.342175483703613,3.5649664402008057,0.10055647045373917
1728893473705156600,2.094156494140625,9.23443603515625,3.756502389907837,0.08619125932455063
1728893473715135700,2.1041357421875,9.07641887664795,3.883395195007324,-0.07422025501728058
1728893473725115000,2.114114990234375,9.014169692993164,4.01268196105957,-0.22505496442317963
1728893473735124700,2.124124755859375,8.968679428100586,3.914519786834717,-0.31842881441116333
1728893473745104100,2.134104248046875,9.306262016296387,3.7852327823638916,-0.4596867263317108
1728893473755083300,2.144083251953125,9.344569206237793,3.7876269817352295,-0.5123591423034668
1728893473765032000,2.154031982421875,9.188945770263672,3.885789394378662,-0.5626373887062073
1728893473775041800,2.164041748046875,9.38048267364502,3.866635799407959,-0.7230489253997803
1728893473785051600,2.1740517578125,9.29189682006836,3.9695863723754883,-0.7493851184844971
1728893473795061200,2.184061279296875,9.32302188873291,4.065354347229004,-0.7493851184844971
1728893473805040600,2.19404052734375,9.157821655273438,4.060565948486328,-0.9385270476341248
1728893473815050200,2.20405029296875,9.21288776397705,4.240131378173828,-1.0007762908935547
1728893473825029600,2.214029541015625,9.184157371520996,4.458003520965576,-0.9840168952941895
1728893473835008800,2.2240087890625,8.69334602355957,4.60165548324585,-0.8236053586006165
1728893473845018600,2.2340185546875,8.061277389526367,4.994304656982422,-0.8475474119186401
1728893473854997800,2.243997802734375,9.095572471618652,5.322310447692871,-1.213860273361206
1728893473864977200,2.25397705078125,8.959102630615234,5.013458251953125,-1.3072341680526733
1728893473874986800,2.26398681640625,9.311050415039062,4.809951305389404,-1.599326729774475
1728893473884935700,2.273935791015625,9.220070838928223,4.78122091293335,-1.7477672100067139
1728893473894945300,2.2839453125,8.884882926940918,4.771644115447998,-1.599326729774475
1728893473904955100,2.293955078125,8.561665534973145,4.5394062995910645,-1.3886369466781616
1728893473914934300,2.303934326171875,7.948749542236328,4.613626480102539,-1.2330138683319092
1728893473924913700,2.31391357421875,7.898471355438232,4.69024133682251,-1.1659762859344482
1728893473934892800,2.323892822265625,7.939172744750977,4.711789131164551,-1.139639973640442
1728893473944902700,2.333902587890625,7.82185697555542,4.663905143737793,-1.1276689767837524
1728893473954912300,2.343912353515625,7.908048152923584,4.508281707763672,-1.0199298858642578
1728893473964922000,2.353922119140625,8.121131896972656,4.378994941711426,-0.9241618514060974
1728893473974901200,2.3639013671875,8.22887134552002,4.323928356170654,-1.0893617868423462
1728893473984880600,2.373880615234375,8.097189903259277,4.299986362457275,-0.9433154463768005
1728893473994859800,2.38385986328125,8.394071578979492,4.285621166229248,-0.9576807022094727
1728893474004869600,2.39386962890625,8.374917984008789,4.683058738708496,0.14365209639072418
1728893474014848800,2.403848876953125,8.87291145324707,4.098873138427734,-0.2561795711517334
1728893474024828200,2.413828125,8.705317497253418,4.2975921630859375,-0.23702596127986908
1728893474034807300,2.423807373046875,8.413225173950195,3.9911341667175293,-0.3711012601852417
1728893474044817200,2.433817138671875,8.700529098510742,3.7852327823638916,-0.5027823448181152
1728893474054796300,2.44379638671875,9.050082206726074,3.84269380569458,-0.6057330369949341
1728893474064775700,2.453775634765625,9.452308654785156,3.914519786834717,-0.6536170840263367
1728893474074785300,2.463785400390625,9.32302188873291,3.845088005065918,-0.7709329724311829
1728893474084764700,2.4737646484375,9.488221168518066,3.8163576126098633,-1.0582371950149536
1728893474094774500,2.4837744140625,9.20091724395752,3.732560396194458,-1.1899182796478271
1728893474104784100,2.4937841796875,9.172186851501465,3.6104562282562256,-1.3742717504501343
1728893474114794000,2.5037939453125,9.35893440246582,3.6942532062530518,-1.5179238319396973
1728893474124773000,2.513773193359375,9.370905876159668,3.756502389907837,-1.6136919260025024
1728893474134783000,2.523782958984375,9.528923034667969,3.7493197917938232,-1.6424223184585571
1728893474144731600,2.533731689453125,9.761159896850586,3.6966474056243896,-1.7525556087493896
1728893474154741500,2.543741455078125,9.859322547912598,3.670311212539673,-2.006340980529785
1728893474164751000,2.553751220703125,9.856928825378418,3.509899616241455,-2.300827741622925
1728893474174761000,2.563760986328125,9.708487510681152,3.550601005554199,-2.477998733520508
1728893474184770800,2.573770751953125,9.493009567260742,3.5386300086975098,-2.559401512145996
1728893474194780400,2.583780517578125,9.464279174804688,3.49314022064209,-2.734178304672241
1728893474204790300,2.593790283203125,9.32302188873291,3.49314022064209,-2.8131868839263916
1728893474214800100,2.603800048828125,9.136273384094238,3.4811692237854004,-2.7102363109588623
1728893474224779300,2.613779296875,8.918401718139648,3.6128504276275635,-2.652775526046753
1728893474234758700,2.623758544921875,8.913613319396973,3.797203779220581,-2.454056739807129
1728893474244737800,2.63373779296875,8.983044624328613,3.737348794937134,-2.382230758666992
1728893474254747600,2.64374755859375,9.141061782836914,3.7708675861358643,-2.4420857429504395
1728893474264726800,2.653726806640625,8.937555313110352,3.751713991165161,-2.3774423599243164
1728893474274736600,2.663736572265625,8.935160636901855,3.6391866207122803,-2.27209734916687
1728893474284746200,2.673746337890625,8.992621421813965,3.6583402156829834,-2.274491548538208
1728893474294756000,2.683756103515625,8.975862503051758,3.5482068061828613,-2.389413356781006
1728893474304735200,2.6937353515625,8.841787338256836,3.598485231399536,-2.1930887699127197
1728893474314745000,2.7037451171875,8.829815864562988,3.4835634231567383,-2.2194249629974365
1728893474324755000,2.7137548828125,8.69095230102539,3.5027170181274414,-2.1308395862579346
1728893474334764500,2.7237646484375,8.731653213500977,3.3446998596191406,-2.161964178085327
1728893474344774400,2.7337744140625,8.664615631103516,3.138798475265503,-2.365471363067627
1728893474354784300,2.7437841796875,8.769960403442383,3.1100680828094482,-2.669534921646118
1728893474364793900,2.7537939453125,8.927978515625,3.155557870864868,-2.5306711196899414
1728893474374803700,2.7638037109375,9.040505409240723,3.00711727142334,-2.5043349266052246
1728893474384813600,2.7738134765625,9.160215377807617,3.1747114658355713,-2.559401512145996
1728893474394823200,2.7838232421875,9.282320022583008,3.1100680828094482,-2.7006595134735107
1728893474404802600,2.793802490234375,9.042900085449219,3.0550012588500977,-2.607285737991333
1728893474414781700,2.80378173828125,8.935160636901855,3.177105665206909,-2.5474305152893066
1728893474424761000,2.813760986328125,9.17697525024414,2.9951462745666504,-2.5977089405059814
1728893474434770700,2.823770751953125,9.167398452758789,3.1076738834381104,-2.609679937362671
1728893474444750000,2.83375,9.165003776550293,2.9975404739379883,-2.6839001178741455
1728893474454729200,2.843729248046875,9.121908187866211,3.1651346683502197,-2.63362193107605
1728893474464739000,2.853739013671875,9.402029991149902,3.1747114658355713,-2.6791117191314697
1728893474474748700,2.863748779296875,9.423578262329102,3.141192674636841,-2.6455929279327393
1728893474484758500,2.873758544921875,9.32302188873291,3.1675288677215576,-2.7700912952423096
1728893474494738000,2.883738037109375,9.41400146484375,3.220201253890991,-2.7222073078155518
1728893474504717000,2.893717041015625,9.35893440246582,3.205836057662964,-2.7102363109588623
1728893474514696200,2.9036962890625,9.313444137573242,3.1914708614349365,-2.650381326675415
1728893474524675600,2.913675537109375,9.351752281188965,3.1100680828094482,-2.6408045291900635
1728893474534685200,2.923685302734375,9.208099365234375,3.0837318897247314,-2.676717519760132
1728893474544664600,2.93366455078125,9.138668060302734,3.047818660736084,-2.6791117191314697
1728893474554674400,2.94367431640625,9.045293807983398,3.0550012588500977,-2.669534921646118
1728893474564684000,2.95368408203125,8.96149730682373,2.868253707885742,-2.75812029838562
1728893474574663400,2.963663330078125,8.729259490966797,2.829946517944336,-2.7078421115875244
1728893474584642600,2.973642578125,8.604761123657227,2.7078421115875244,-2.6815059185028076
1728893474594652400,2.98365234375,8.595184326171875,2.674323320388794,-2.7126305103302
1728893474604631600,2.993631591796875,8.678980827331543,2.5761611461639404,-2.8107926845550537
1728893474614611000,3.00361083984375,8.736441612243652,2.6647465229034424,-2.765302896499634
1728893474624620500,3.01362060546875,8.813055992126465,2.6575639247894287,-2.717418909072876
1728893474634630400,3.02363037109375,8.908824920654297,2.6168625354766846,-2.5665841102600098
1728893474644609500,3.033609619140625,8.884882926940918,2.6599581241607666,-2.6001031398773193
1728893474654619400,3.043619384765625,8.762778282165527,2.8586769104003906,-2.341529369354248
1728893474664598500,3.0535986328125,8.813055992126465,2.9281086921691895,-2.298433542251587
1728893474674578000,3.063577880859375,8.892065048217773,3.023876667022705,-2.315192937850952
1728893474684587800,3.073587890625,8.889671325683594,3.0526070594787598,-2.4133553504943848
1728893474694597400,3.083597412109375,8.851364135742188,3.1100680828094482,-2.425326347351074
1728893474704607200,3.093607177734375,8.899248123168945,3.0382418632507324,-2.5234885215759277
1728893474714586400,3.10358642578125,9.047688484191895,3.0142998695373535,-2.5977089405059814
1728893474724565800,3.113565673828125,9.126696586608887,2.829946517944336,-2.5977089405059814
1728893474734545000,3.123544921875,9.10993766784668,2.7892448902130127,-2.612074136734009
1728893474744554800,3.1335546875,9.023746490478516,2.8634653091430664,-2.6024973392486572
1728893474754564400,3.143564453125,9.05247688293457,2.8203697204589844,-2.6024973392486572
1728893474764574200,3.15357421875,9.258378028869629,2.7269957065582275,-2.5282769203186035
1728893474774553600,3.1635537109375,9.459490776062012,2.5737667083740234,-2.691082715988159
1728893474784502300,3.173502197265625,9.368511199951172,2.676717519760132,-2.7222073078155518
1728893474794512000,3.183511962890625,9.318233489990234,2.7916390895843506,-2.6001031398773193
1728893474804521700,3.193521728515625,9.26795482635498,2.6575639247894287,-2.7892448902130127
1728893474814500900,3.2035009765625,9.224859237670898,2.80361008644104,-2.829946517944336
1728893474824449800,3.21344970703125,9.215282440185547,2.913743495941162,-2.7892448902130127
1728893474834459400,3.22345947265625,9.255983352661133,3.023876667022705,-2.715024709701538
1728893474844469200,3.23346923828125,9.315838813781738,3.0765492916107178,-2.6455929279327393
1728893474854448400,3.243448486328125,9.35654067993164,3.2776620388031006,-2.427720546722412
1728893474864397300,3.253397216796875,9.672574996948242,3.313575267791748,-2.408566951751709
1728893474874407000,3.263406982421875,9.677363395690918,3.423708438873291,-2.5043349266052246
1728893474884386300,3.27338623046875,9.586383819580078,3.5745432376861572,-2.5761611461639404
1728893474894396000,3.28339599609375,9.402029991149902,3.780444383621216,-2.626439332962036
1728893474904344800,3.2933447265625,9.588777542114258,3.689464807510376,-2.7078421115875244
1728893474914354400,3.3033544921875,9.612719535827637,3.648763418197632,-2.7485435009002686
1728893474924364300,3.3133642578125,9.397241592407227,3.8355112075805664,-2.6024973392486572
1728893474934343400,3.323343505859375,9.536105155944824,3.8307228088378906,-2.561795711517334
1728893474944292400,3.333292236328125,9.255983352661133,3.8977603912353516,-2.387019157409668
1728893474954302000,3.343302001953125,9.188945770263672,3.8738183975219727,-2.341529369354248
1728893474964311800,3.353311767578125,9.23443603515625,4.017470359802246,-2.3295583724975586
1728893474974291000,3.363291015625,10.541669845581055,2.738966703414917,-2.3343467712402344
1728893474984270300,3.373270263671875,9.636661529541016,4.67827033996582,-2.494758129119873
1728893474994249500,3.38324951171875,9.81143856048584,4.503493309020996,-2.4684219360351562
1728893475004259300,3.39325927734375,9.818621635437012,4.084507942199707,-2.47560453414917
1728893475014269000,3.40326904296875,10.345345497131348,4.015076160430908,-2.557007312774658
1728893475024248300,3.413248291015625,10.627861022949219,4.079719543457031,-2.671929121017456
1728893475034258200,3.423258056640625,10.342951774597168,4.278438568115234,-2.4851813316345215
1728893475044237300,3.4332373046875,9.955090522766113,4.240131378173828,-2.2888567447662354
1728893475054247200,3.4432470703125,10.187328338623047,3.976768970489502,-2.123656988143921
1728893475064256800,3.4532568359375,10.362105369567871,3.7397429943084717,-2.097320795059204
1728893475074236200,3.463236083984375,9.950302124023438,3.713406801223755,-2.3032219409942627
1728893475084215300,3.47321533203125,9.928754806518555,3.5482068061828613,-2.4851813316345215
1728893475094194700,3.483194580078125,10.266336441040039,3.1675288677215576,-2.7030537128448486
1728893475104204300,3.493204345703125,10.398017883300781,2.9281086921691895,-2.7700912952423096
1728893475114183700,3.50318359375,10.54406452178955,2.9975404739379883,-2.6671407222747803
1728893475124132400,3.51313232421875,10.086771965026855,3.184288263320923,-2.6431987285614014
1728893475134142200,3.52314208984375,9.622296333312988,3.378218650817871,-2.655169725418091
1728893475144121300,3.533121337890625,9.38048267364502,3.4165258407592773,-2.6431987285614014
1728893475154100500,3.5431005859375,9.119514465332031,3.5027170181274414,-2.5689783096313477
1728893475164049400,3.55304931640625,9.466673851013184,3.4620156288146973,-2.31758713722229
1728893475174059000,3.56305908203125,9.516951560974121,3.3446998596191406,-2.31758713722229
1728893475184068900,3.57306884765625,9.552865028381348,3.0166940689086914,-2.2242133617401123
1728893475194048000,3.583048095703125,9.636661529541016,2.5091233253479004,-2.293645143508911
1728893475204027400,3.59302734375,9.526528358459473,2.3032219409942627,-2.542642116546631
1728893475214006500,3.603006591796875,9.500192642211914,2.0398597717285156,-2.7892448902130127
1728893475224016400,3.613016357421875,9.366117477416992,1.8339585065841675,-2.911349296569824
1728893475234026200,3.623026123046875,9.50737476348877,1.5969325304031372,-2.937685489654541
1728893475244005400,3.63300537109375,9.856928825378418,1.3527239561080933,-2.956839084625244
1728893475253984500,3.642984619140625,9.955090522766113,1.2976573705673218,-3.0813376903533936
1728893475263994400,3.652994384765625,9.914389610290527,1.2737152576446533,-3.246537446975708
1728893475274004200,3.663004150390625,9.816226959228516,1.2545616626739502,-3.3638534545898438
1728893475283983400,3.6729833984375,9.624691009521484,1.2617442607879639,-3.5051112174987793
1728893475293993200,3.6829931640625,9.41639518737793,1.235408067703247,-3.5889084339141846
1728893475303972400,3.692972412109375,9.533711433410645,1.1659762859344482,-3.5242648124694824
1728893475313982200,3.702982177734375,9.701305389404297,1.0438719987869263,-3.5960910320281982
1728893475323961300,3.71296142578125,9.519346237182617,0.9624691009521484,-3.73016619682312
1728893475333940700,3.722940673828125,9.366117477416992,0.8930372595787048,-3.799597978591919
1728893475343889400,3.732889404296875,9.514557838439941,0.6392518281936646,-4.031835556030273
1728893475353899300,3.742899169921875,9.32541561126709,0.5003881454467773,-4.180276393890381
1728893475363878400,3.75287841796875,9.35893440246582,0.2968810200691223,-4.299986362457275
1728893475373857800,3.76285791015625,9.169792175292969,0.3423708379268646,-4.347870349884033
1728893475383867400,3.772867431640625,8.93037223815918,0.5650315880775452,-4.371812343597412
1728893475393877200,3.782877197265625,8.947132110595703,0.6416460275650024,-4.41969633102417
1728893475403856400,3.7928564453125,8.884882926940918,0.706289529800415,-4.489128112792969
1728893475413835800,3.802835693359375,8.975862503051758,0.8164227604866028,-4.525041103363037
1728893475423845400,3.812845458984375,9.30386734008789,0.9720458984375,-4.505887508392334
1728893475433855200,3.822855224609375,9.124302864074707,1.1899182796478271,-4.347870349884033
1728893475443834400,3.83283447265625,8.676587104797363,1.216254472732544,-4.180276393890381
1728893475453844200,3.84284423828125,8.10437297821045,1.1803414821624756,-3.957615375518799
1728893475463823600,3.85282373046875,7.934384346008301,1.0845733880996704,-3.665522813796997
1728893475473802800,3.862802734375,8.157045364379883,1.1563993692398071,-3.3494882583618164
1728893475483812600,3.8728125,9.354146003723145,1.2114660739898682,-3.224989652633667
1728893475493791700,3.882791748046875,11.338939666748047,1.2665326595306396,-2.853888511657715
1728893475503771000,3.89277099609375,10.769119262695312,1.6184803247451782,-2.10210919380188
1728893475513780700,3.90278076171875,9.57441234588623,1.8698714971542358,-1.5083470344543457
1728893475523760000,3.912760009765625,8.947132110595703,1.8076223134994507,-1.5131354331970215
1728893475533739300,3.9227392578125,8.53293514251709,2.3750481605529785,-0.7709329724311829
1728893475543749000,3.9327490234375,8.583212852478027,2.6384103298187256,-0.8810662031173706
1728893475553728300,3.942728271484375,8.008605003356934,2.9496564865112305,-0.8930372595787048
1728893475563677000,3.952677001953125,8.085219383239746,2.9688100814819336,-0.9911994934082031
1728893475573686800,3.962686767578125,8.166622161865234,2.827552318572998,-0.9217676520347595
1728893475583666000,3.972666015625,8.334216117858887,2.456450939178467,-0.9792284965515137
1728893475593645300,3.982645263671875,8.530540466308594,1.9800047874450684,-1.0678139925003052
1728893475603655000,3.992655029296875,9.095572471618652,1.4317326545715332,-1.173158884048462
1728893475613634300,4.00263427734375,9.8784761428833,1.0534487962722778,-1.235408067703247
1728893475623613400,4.012613525390625,10.486603736877441,0.7182605266571045,-1.2689268589019775
1728893475633592800,4.0225927734375,10.812214851379395,0.40701428055763245,-1.3670891523361206
1728893475643602400,4.0326025390625,10.778696060180664,0.2777273952960968,-1.4317326545715332
1728893475653581800,4.042581787109375,10.47702693939209,0.3495534360408783,-1.4844050407409668
1728893475663561000,4.05256103515625,10.522516250610352,0.5171475410461426,-1.623268723487854
1728893475673570800,4.06257080078125,10.273519515991211,0.47165772318840027,-1.8124107122421265
1728893475683550000,4.072550048828125,10.067618370056152,0.2298433631658554,-1.968033790588379
1728893475693529300,4.082529296875,9.751583099365234,0.11971008777618408,-2.0590133666992188
1728893475703539000,4.0925390625,9.552865028381348,0.043095629662275314,-2.1763293743133545
1728893475713548800,4.102548828125,9.907206535339355,-0.20350714027881622,-2.250549554824829
1728893475723528200,4.112528076171875,10.17296314239502,-0.4572925269603729,-2.3056161403656006
1728893475733507300,4.12250732421875,9.832986831665039,-0.7158663272857666,-2.3487119674682617
1728893475743517200,4.13251708984375,9.457097053527832,-0.8571242094039917,-2.3104045391082764
1728893475753496300,4.142496337890625,9.224859237670898,-0.7374141216278076,-1.9536685943603516
1728893475763445000,4.152445068359375,8.966285705566406,-0.47884035110473633,-1.4221558570861816
1728893475773454800,4.162454833984375,8.765172004699707,-0.4357447028160095,-1.137245774269104
1728893475783434000,4.17243408203125,8.791508674621582,-0.5722141861915588,-1.1659762859344482
1728893475793413400,4.182413330078125,9.040505409240723,-0.5746083855628967,-1.2832920551300049
1728893475803392500,4.192392578125,9.02135181427002,-0.4381389021873474,-1.3886369466781616
1728893475813402400,4.20240234375,9.02135181427002,-0.31842881441116333,-1.436521053314209
1728893475823381500,4.212381591796875,9.121908187866211,-0.27054479718208313,-1.436521053314209
1728893475833361000,4.22236083984375,8.78193187713623,-0.1364694982767105,-1.4269442558288574
1728893475843370500,4.23237060546875,8.489839553833008,0.12689268589019775,-1.2761094570159912
1728893475853350000,4.242349853515625,8.317456245422363,0.3902548849582672,-0.993593692779541
1728893475863298600,4.252298583984375,8.037335395812988,0.5770025849342346,-0.7805097699165344
1728893475873308400,4.262308349609375,7.987056732177734,0.7805097699165344,-0.6967126727104187
1728893475883287600,4.27228759765625,7.924807548522949,1.0295066833496094,-0.6033388376235962
1728893475893297400,4.28229736328125,7.63989782333374,1.235408067703247,-0.5339069962501526
1728893475903276500,4.292276611328125,7.481880187988281,1.5634137392044067,-0.5003881454467773
1728893475913286400,4.302286376953125,7.264008045196533,1.9177556037902832,-0.44771572947502136
1728893475923265500,4.312265625,6.842628479003906,2.188300371170044,-0.48602294921875
1728893475933245000,4.322244873046875,6.36378812789917,2.5115175247192383,-0.3208230137825012
1728893475943254500,4.332254638671875,6.421248912811279,2.8874073028564453,0.07661445438861847
1728893475953234000,4.34223388671875,6.785167694091797,3.0406360626220703,0.35913026332855225
1728893475963182600,4.3521826171875,7.307103633880615,3.0406360626220703,0.5410895943641663
1728893475973192400,4.3621923828125,7.754819393157959,3.0621838569641113,0.6536170840263367
1728893475983171600,4.372171630859375,8.183381080627441,3.026270866394043,0.6440402865409851
1728893475993181400,4.382181396484375,8.279149055480957,3.004723072052002,0.6919242739677429
1728893476003130000,4.392130126953125,8.501810073852539,3.134010076522827,0.8858546018600464
1728893476013140000,4.402139892578125,8.698134422302246,3.509899616241455,1.1994950771331787
1728893476023149600,4.412149658203125,8.731653213500977,4.041412353515625,1.6687586307525635
1728893476033159400,4.422159423828125,8.829815864562988,4.37420654296875,1.9728221893310547
1728893476043138600,4.432138671875,8.992621421813965,4.182670593261719,2.0015525817871094
1728893476053148400,4.4421484375,9.210494041442871,4.448426723480225,2.4205379486083984
1728893476063127800,4.4521279296875,9.653421401977539,5.015852451324463,2.7461493015289307
1728893476073137400,4.462137451171875,9.9000244140625,5.430049419403076,3.0119056701660156
1728893476083116800,4.47211669921875,9.801861763000488,5.724536418914795,3.114856481552124
1728893476093096000,4.482095947265625,9.612719535827637,5.719748020172119,3.090914487838745
1728893476103075300,4.492075439453125,9.21288776397705,5.492298603057861,3.1675288677215576
1728893476113054500,4.502054443359375,8.880094528198242,5.307945251464844,3.445256233215332
1728893476123064300,4.512064208984375,8.69334602355957,5.25527286529541,3.5625722408294678
1728893476133043500,4.52204345703125,8.7484130859375,4.910507678985596,3.3901896476745605
1728893476143022600,4.532022705078125,8.655038833618164,4.929661273956299,3.794809579849243
1728893476153032400,4.542032470703125,8.449137687683105,5.015852451324463,4.050989151000977
1728893476163011800,4.55201171875,8.564059257507324,5.274426460266113,4.213795185089111
1728893476173021400,4.562021484375,8.494627952575684,5.322310447692871,4.125209331512451
1728893476182970000,4.57197021484375,7.845798969268799,4.946420669555664,3.8139634132385254
1728893476192980000,4.58197998046875,7.041347026824951,4.481945514678955,3.375824451446533
1728893476202989800,4.59198974609375,6.358999729156494,3.9384617805480957,2.7269957065582275
1728893476212969000,4.601968994140625,6.208165168762207,3.339911460876465,2.169146776199341
1728893476222948400,4.6119482421875,6.687005519866943,3.028665065765381,2.049436569213867
1728893476232958000,4.6219580078125,7.292738437652588,2.999934673309326,2.3271639347076416
1728893476242937300,4.631937255859375,7.580042362213135,3.8594532012939453,3.3446998596191406
1728893476252916500,4.64191650390625,7.338228225708008,4.410119533538818,4.252102375030518
1728893476262926300,4.65192626953125,7.402871608734131,3.9815573692321777,4.108449935913086
1728893476272936000,4.66193603515625,7.680599212646484,4.158728122711182,4.106055736541748
1728893476282915300,4.671915283203125,7.620744228363037,4.742913722991943,4.1156325340271
1728893476292894500,4.68189453125,7.429207801818848,5.219359874725342,4.0749311447143555
1728893476302904300,4.691904296875,7.659051418304443,5.372588634490967,3.928884983062744
1728893476312883500,4.701883544921875,8.166622161865234,5.145139217376709,3.732560396194458
1728893476322832400,4.711832275390625,8.631096839904785,4.9583916664123535,3.7253777980804443
1728893476332842000,4.721842041015625,9.045293807983398,5.003881454467773,4.01268196105957
1728893476342821400,4.7318212890625,9.107542991638184,5.240907669067383,4.668693542480469
1728893476352800500,4.741800537109375,8.848969459533691,5.506663799285889,5.2672438621521
1728893476362780000,4.75177978515625,8.56884765625,5.9519853591918945,5.746084213256836
1728893476372789500,4.76178955078125,8.820239067077637,6.36378812789917,5.978321552276611
1728893476382769000,4.771768798828125,9.097966194152832,6.502651691436768,5.679046630859375
1728893476392748000,4.781748046875,8.923190116882324,6.550535678863525,5.410895824432373
1728893476402727400,4.7917275390625,8.516175270080566,6.4834980964660645,5.114014625549316
1728893476412737000,4.801737060546875,8.307879447937012,6.133944988250732,4.771644115447998
1728893476422716400,4.81171630859375,8.003816604614258,5.817910194396973,4.400542736053467
1728893476432726000,4.82172607421875,7.539340972900391,5.57370138168335,4.0294413566589355
1728893476442705400,4.831705322265625,6.718130111694336,5.453991413116455,3.7852327823638916
1728893476452715000,4.841715087890625,5.932831764221191,5.382165431976318,3.6104562282562256
1728893476462694400,4.8516943359375,5.657498836517334,5.233725070953369,3.332728862762451
1728893476472673500,4.861673583984375,5.5976433753967285,5.295974254608154,3.44765043258667
1728893476482683400,4.871683349609375,5.858611583709717,5.092466831207275,3.4524388313293457
1728893476492662500,4.88166259765625,6.552929878234863,4.558559894561768,3.3901896476745605
1728893476502642000,4.891641845703125,7.0341644287109375,3.8546648025512695,3.0526070594787598
1728893476512621000,4.90162109375,7.208941459655762,3.691859006881714,3.2393548488616943
1728893476522631000,4.911630859375,7.110779285430908,3.9695863723754883,3.603273630142212
1728893476532610000,4.921610107421875,6.835445880889893,4.912901878356934,4.345476150512695
1728893476542589400,4.93158935546875,7.084442615509033,4.323928356170654,3.646369218826294
1728893476552599000,4.94159912109375,7.718906402587891,4.443638324737549,4.0749311447143555
1728893476562578400,4.951578369140625,7.3693528175354,4.067748546600342,3.9887399673461914
1728893476572557600,4.9615576171875,6.722918510437012,3.737348794937134,3.995922565460205
1728893476582567400,4.9715673828125,6.440402507781982,4.644751071929932,5.140350818634033
1728893476592546600,4.981546630859375,6.584054470062256,5.43723201751709,5.657498836517334
1728893476602495500,4.99149560546875,6.775590896606445,6.698976516723633,6.3973069190979
1728893476612505000,5.001505126953125,7.048529624938965,7.357381820678711,6.744466304779053
1728893476622484500,5.011484375,7.16584587097168,7.508216381072998,6.512228488922119
1728893476632463600,5.021463623046875,6.809109687805176,7.694964408874512,6.586448669433594
1728893476642473500,5.031473388671875,5.901707172393799,6.962338447570801,6.133944988250732
1728893476652452600,5.04145263671875,5.698200225830078,6.244078159332275,5.774814605712891
1728893476662401300,5.0514013671875,5.556941986083984,5.770026206970215,5.633556365966797
1728893476672411100,5.0614111328125,5.899312973022461,5.353435039520264,5.614402770996094
1728893476682390300,5.071390380859375,6.40927791595459,4.575319290161133,5.363011837005615
1728893476692369700,5.08136962890625,6.737283706665039,3.9217023849487305,5.240907669067383
1728893476702348800,5.091348876953125,8.456320762634277,3.9671921730041504,4.855441093444824
1728893476712328200,5.101328125,7.216124057769775,3.73016619682312,4.417302131652832
1728893476722337800,5.111337890625,6.1052141189575195,4.106055736541748,4.955997467041016
1728893476732347600,5.12134765625,5.738901615142822,4.608838081359863,5.054159641265869
1728893476742296300,5.13129638671875,5.384559631347656,4.991910457611084,4.869806289672852
1728893476752306200,5.14130615234375,5.542576789855957,5.339069843292236,4.876988887786865
1728893476762285300,5.151285400390625,5.52821159362793,5.286397457122803,4.896142482757568
1728893476772264700,5.1612646484375,5.231330871582031,5.173870086669922,4.742913722991943
1728893476782274300,5.1712744140625,5.118803024291992,5.039794445037842,4.517858505249023
1728893476792253700,5.181253662109375,5.295974254608154,5.128379821777344,4.49870491027832
1728893476802232800,5.19123291015625,5.571307182312012,5.4252610206604,4.654327869415283
1728893476812242700,5.20124267578125,5.671864032745361,5.616796970367432,4.714183330535889
1728893476822221800,5.211221923828125,5.810727596282959,5.657498836517334,4.766855716705322
1728893476832231700,5.221231689453125,5.95677375793457,5.882553577423096,4.829104900360107
1728893476842210800,5.2312109375,5.846640586853027,6.143521785736084,4.364629745483398
1728893476852220700,5.241220703125,5.30076265335083,5.875370979309082,3.667917013168335
1728893476862200000,5.251199951171875,5.772420406341553,7.4770917892456055,5.614402770996094
1728893476872179200,5.26117919921875,6.169857978820801,7.924807548522949,5.590460777282715
1728893476882189000,5.27118896484375,6.574477672576904,8.307879447937012,5.149928092956543
1728893476892168200,5.281168212890625,6.775590896606445,8.13789176940918,4.716577529907227
1728893476902116900,5.291116943359375,6.72531270980835,7.709329605102539,4.3191399574279785
1728893476912126700,5.301126708984375,6.404489517211914,7.395689010620117,3.73016619682312
1728893476922105900,5.31110595703125,6.335057735443115,7.151480674743652,3.1723172664642334
1728893476932085200,5.321085205078125,6.538564682006836,6.842628479003906,2.695871114730835
1728893476942064400,5.331064453125,6.607996463775635,7.151480674743652,3.004723072052002
1728893476952074200,5.34107421875,7.15387487411499,7.888894557952881,3.5027170181274414
1728893476962053400,5.351053466796875,8.169015884399414,8.53293514251709,3.7421371936798096
1728893476972032800,5.36103271484375,8.83939266204834,8.688557624816895,4.122815132141113
1728893476982042400,5.37104248046875,9.064447402954102,8.508993148803711,4.343081951141357
1728893476992052200,5.38105224609375,9.181763648986816,8.379706382751465,4.436455726623535
1728893477002031600,5.391031494140625,9.272743225097656,8.516175270080566,4.355052947998047
1728893477012010800,5.4010107421875,9.81143856048584,9.074024200439453,4.572925090789795
1728893477022020600,5.4110205078125,10.251971244812012,10.462661743164062,5.449203014373779
1728893477032030200,5.4210302734375,10.891223907470703,12.246341705322266,6.607996463775635
1728893477042009600,5.431009521484375,10.127472877502441,12.36365795135498,7.141903877258301
1728893477052019200,5.441019287109375,8.635885238647461,11.39400577545166,7.029376029968262
1728893477061968100,5.450968017578125,7.139509677886963,9.897629737854004,6.258443355560303
1728893477071977700,5.460977783203125,6.026205539703369,8.370129585266113,5.185841083526611
1728893477081987600,5.470987548828125,5.2049946784973145,7.524975776672363,4.280832767486572
1728893477091997400,5.48099755859375,4.398148536682129,7.2113356590271,3.6798880100250244
1728893477102007000,5.491007080078125,3.3854012489318848,6.801927089691162,2.959233283996582
1728893477111986400,5.500986328125,1.9967641830444336,6.358999729156494,2.647987127304077
1728893477121965600,5.510965576171875,0.9050082564353943,6.026205539703369,2.4899697303771973
1728893477131975400,5.520975341796875,0.6775590777397156,5.856217384338379,2.8586769104003906
1728893477141954600,5.53095458984375,1.6663644313812256,6.3302693367004395,3.6559460163116455
1728893477151964400,5.54096435546875,2.8347349166870117,6.2201361656188965,3.8546648025512695
1728893477161943600,5.550943603515625,4.455609321594238,5.724536418914795,3.576937437057495
1728893477171953400,5.560953369140625,5.590460777282715,5.846640586853027,3.847482204437256
1728893477181963300,5.57096337890625,6.833051681518555,5.468356609344482,3.799597978591919
1728893477191942400,5.5809423828125,8.101978302001953,4.910507678985596,3.488351821899414
1728893477201921500,5.590921630859375,9.734824180603027,4.474762916564941,3.177105665206909
1728893477211901000,5.60090087890625,10.541669845581055,4.108449935913086,2.9664158821105957
1728893477221910500,5.61091064453125,10.599130630493164,3.667917013168335,2.875436305999756
1728893477231920400,5.62092041015625,10.508151054382324,3.1531636714935303,2.6575639247894287
1728893477241899800,5.630899658203125,10.565611839294434,2.492363929748535,2.3798365592956543
1728893477251879000,5.64087890625,10.287884712219238,1.8746598958969116,2.013523578643799
1728893477261888800,5.650888671875,9.593565940856934,1.656787633895874,1.8818424940109253
1728893477271868000,5.660867919921875,8.710105895996094,1.6639702320098877,2.027888774871826
1728893477281816600,5.670816650390625,8.003816604614258,1.623268723487854,2.2409727573394775
1728893477291826400,5.680826416015625,7.304709434509277,1.6519991159439087,2.425326347351074
1728893477301805600,5.6908056640625,7.232883453369141,1.8794482946395874,2.7461493015289307
1728893477311785000,5.700784912109375,6.143521785736084,2.7269957065582275,3.4979286193847656
1728893477321794600,5.710794677734375,4.687847137451172,3.0861260890960693,4.19224739074707
1728893477331804400,5.720804443359375,4.230554580688477,2.9903578758239746,3.641580820083618
1728893477341814300,5.730814208984375,5.916072368621826,3.287238836288452,3.6942532062530518
1728893477351793400,5.74079345703125,6.627150535583496,3.598485231399536,3.9887399673461914
1728893477361742000,5.7507421875,6.418854713439941,3.914519786834717,4.37420654296875
1728893477371752000,5.760751953125,6.421248912811279,3.4955344200134277,4.134786128997803
1728893477381731300,5.7707314453125,7.206547260284424,3.646369218826294,5.008669853210449
1728893477391741000,5.780740966796875,7.311892032623291,3.3662476539611816,4.929661273956299
1728893477401720300,5.79072021484375,7.807491779327393,4.702212333679199,6.098031520843506
1728893477411730000,5.80072998046875,8.89685344696045,4.728548526763916,6.069301128387451
1728893477421709300,5.810709228515625,9.308655738830566,4.309563159942627,5.315127849578857
1728893477431688400,5.8206884765625,8.56645393371582,4.110844135284424,5.169081687927246
1728893477441698300,5.8306982421875,8.451532363891602,4.062960147857666,4.90571928024292
1728893477451677400,5.840677490234375,8.508993148803711,3.821146011352539,4.369418144226074
1728893477461656800,5.85065673828125,8.073247909545898,3.579331636428833,4.165910720825195
1728893477471636000,5.860635986328125,8.111555099487305,3.5242648124694824,4.082113742828369
1728893477481645800,5.870645751953125,8.307879447937012,3.4620156288146973,4.027047157287598
1728893477491625000,5.880625,8.56884765625,3.339911460876465,3.73016619682312
1728893477501604400,5.890604248046875,8.59997272491455,3.359065055847168,3.7469255924224854
1728893477511614000,5.900614013671875,8.712499618530273,3.397372245788574,3.8738183975219727
1728893477521593300,5.91059326171875,8.578424453735352,3.270479440689087,3.7205893993377686
1728893477531603000,5.92060302734375,8.542511940002441,3.397372245788574,3.847482204437256
1728893477541582300,5.930582275390625,8.554482460021973,3.375824451446533,3.892971992492676
1728893477551561500,5.9405615234375,8.523358345031738,3.665522813796997,3.9240965843200684
1728893477561571300,5.9505712890625,7.694964408874512,3.3686418533325195,3.794809579849243
1728893477571581200,5.960581298828125,7.33583402633667,3.1938650608062744,3.780444383621216
1728893477581560300,5.970560302734375,6.907271862030029,3.160346269607544,3.8163576126098633
1728893477591539500,5.98053955078125,6.698976516723633,3.047818660736084,3.689464807510376
1728893477601549300,5.99054931640625,6.670246124267578,2.9759926795959473,3.8115692138671875
1728893477611559200,6.00055908203125,6.665457725524902,2.935291290283203,4.072536945343018
1728893477621538300,6.010538330078125,6.871358871459961,3.3925838470458984,4.469974517822266
1728893477631548200,6.020548095703125,6.919242858886719,3.2609026432037354,3.7660791873931885
1728893477641527300,6.03052734375,6.347028732299805,3.3231520652770996,3.8594532012939453
1728893477651537200,6.040537109375,6.3302693367004395,4.2090067863464355,4.163516521453857
1728893477661516300,6.050516357421875,6.914454460144043,4.2975921630859375,3.6320040225982666
1728893477671495700,6.06049560546875,7.137115478515625,4.036623954772949,3.3255462646484375
1728893477681505300,6.07050537109375,6.952761650085449,4.10366153717041,3.6583402156829834
1728893477691484700,6.080484619140625,6.823474884033203,3.9217023849487305,3.9384617805480957
1728893477701463800,6.0904638671875,7.429207801818848,4.611232280731201,3.93367338180542
1728893477711443200,6.100443115234375,5.837063789367676,7.177816867828369,4.759673118591309
1728893477721452800,6.110452880859375,5.477933406829834,7.304709434509277,4.58968448638916
1728893477731432200,6.12043212890625,7.091625213623047,7.429207801818848,3.818751811981201
1728893477741380900,6.130380859375,7.304709434509277,8.44195556640625,4.113238334655762
1728893477751390700,6.140390625,5.525817394256592,7.117961883544922,3.885789394378662
1728893477761369900,6.150369873046875,5.080495834350586,5.432443618774414,3.184288263320923
1728893477771349200,6.160349365234375,5.389348030090332,4.716577529907227,2.911349296569824
1728893477781358800,6.17035888671875,6.507440090179443,5.12119722366333,2.808398485183716
1728893477791368700,6.18036865234375,6.9910688400268555,5.451597213745117,2.5713725090026855
1728893477801347800,6.190347900390625,6.799532890319824,5.430049419403076,2.535459518432617
1728893477811327200,6.2003271484375,7.113173484802246,5.224148273468018,2.47560453414917
1728893477821336800,6.2103369140625,6.390124320983887,5.461174011230469,3.0861260890960693
1728893477831316200,6.220316162109375,6.035782337188721,7.003039836883545,4.553771495819092
1728893477841295400,6.23029541015625,7.419631004333496,6.746860504150391,3.509899616241455
1728893477851274800,6.240274658203125,8.49941635131836,6.4834980964660645,2.4899697303771973
1728893477861254000,6.25025390625,7.850587368011475,5.659893035888672,1.9297266006469727
1728893477871233300,6.2602333984375,6.165069580078125,4.247313976287842,1.8052281141281128
1728893477881243000,6.270242919921875,5.731719017028809,3.9193081855773926,2.3558945655822754
1728893477891252700,6.280252685546875,6.572083473205566,3.8953661918640137,2.1380221843719482
1728893477901231900,6.29023193359375,6.418854713439941,5.279214859008789,2.4133553504943848
1728893477911241700,6.30024169921875,4.857835292816162,8.1139497756958,2.470816135406494
1728893477921220900,6.310220947265625,5.092466831207275,9.155426979064941,1.9847931861877441
1728893477931230700,6.320230712890625,5.75326681137085,9.672574996948242,1.7094600200653076
1728893477941209900,6.3302099609375,5.899312973022461,8.995016098022461,1.4987702369689941
1728893477951219700,6.3402197265625,5.240907669067383,10.316615104675293,2.5043349266052246
1728893477961199000,6.35019921875,4.60165548324585,9.512163162231445,2.427720546722412
1728893477971208700,6.360208740234375,4.376600742340088,9.600749015808105,2.2194249629974365
1728893477981218600,6.370218505859375,5.779603004455566,10.156203269958496,1.7118542194366455
1728893477991197700,6.38019775390625,6.722918510437012,11.05642318725586,1.2880805730819702
1728893478001146400,6.390146484375,7.663839817047119,10.848128318786621,0.33279404044151306
1728893478011156200,6.40015625,7.843404769897461,10.376470565795898,0.24181437492370605
1728893478021166000,6.410166015625,6.766014099121094,10.680533409118652,0.9361328482627869
1728893478031145200,6.420145263671875,4.137180328369141,8.81784439086914,1.45806884765625
1728893478041124600,6.43012451171875,3.7636849880218506,7.364564418792725,1.213860273361206
1728893478051134200,6.44013427734375,5.748478412628174,7.280767440795898,1.37906014919281
1728893478061113600,6.450113525390625,7.122750282287598,7.766790390014648,1.802833914756775
1728893478071123200,6.460123291015625,6.9024834632873535,8.56884765625,2.360682964324951
1728893478081133000,6.470133056640625,6.222530364990234,8.667010307312012,2.535459518432617
1728893478091112200,6.4801123046875,5.559336185455322,7.967903137207031,2.1930887699127197
1728893478101091600,6.490091552734375,5.118803024291992,6.715735912322998,1.6974890232086182
1728893478111070700,6.50007080078125,5.5329999923706055,5.801150798797607,1.4053963422775269
1728893478121080600,6.51008056640625,5.420472621917725,4.508281707763672,2.296039342880249
1728893478131059700,6.520059814453125,5.173870086669922,5.386953830718994,2.6599581241607666
1728893478141039000,6.5300390625,6.098031520843506,6.581660270690918,2.3247697353363037
1728893478151049000,6.540049072265625,2.920926094055176,8.504204750061035,1.8124107122421265
1728893478161028000,6.550028076171875,2.293645143508911,9.375694274902344,1.7142484188079834
1728893478171007200,6.56000732421875,2.1571757793426514,8.621520042419434,2.0039467811584473
1728893478181017000,6.57001708984375,2.561795711517334,8.69334602355957,2.5019407272338867
1728893478191027000,6.58002685546875,2.604891538619995,9.952696800231934,2.609679937362671
1728893478201006000,6.590006103515625,4.0078935623168945,11.683704376220703,2.518700122833252
1728893478210985500,6.5999853515625,4.955997467041016,12.574347496032715,2.2409727573394775
1728893478220995000,6.6099951171875,5.781997203826904,11.726799964904785,1.7357962131500244
1728893478230974500,6.619974365234375,5.240907669067383,10.754754066467285,1.3311761617660522
1728893478240923100,6.629923095703125,4.666299343109131,10.213664054870605,1.0342950820922852
1728893478250933000,6.63993310546875,4.666299343109131,10.1753568649292,1.237802267074585
1728893478260912000,6.649912109375,4.280832767486572,10.043676376342773,1.5610195398330688
1728893478270891300,6.659891357421875,3.272873640060425,8.920795440673828,1.6519991159439087
1728893478280870700,6.66987060546875,3.93367338180542,8.769960403442383,1.45806884765625
1728893478290880300,6.67988037109375,4.2090067863464355,9.184157371520996,1.3718775510787964
1728893478300859600,6.689859619140625,4.156333923339844,9.148244857788086,1.3551181554794312
1728893478310869500,6.699869384765625,3.509899616241455,7.438784599304199,1.3048399686813354
1728893478320848600,6.7098486328125,3.1651346683502197,7.105990409851074,1.37906014919281
1728893478330827800,6.719827880859375,4.01268196105957,4.376600742340088,-0.15322890877723694
1728893478340837600,6.729837646484375,3.603273630142212,3.751713991165161,-0.6392518281936646
1728893478350817000,6.739817138671875,3.598485231399536,3.248931646347046,-0.19153612852096558
1728893478360765700,6.749765625,4.039018154144287,2.3989901542663574,0.5602431893348694
1728893478370775300,6.759775390625,3.928884983062744,2.889801502227783,1.3048399686813354
1728893478380754700,6.769754638671875,3.641580820083618,4.1874589920043945,2.7964274883270264
1728893478390733800,6.77973388671875,3.780444383621216,4.089296340942383,3.0573954582214355
1728893478400743700,6.78974365234375,3.5410242080688477,4.616020679473877,3.004723072052002
1728893478410753500,6.79975341796875,3.5266590118408203,5.171475887298584,3.5410242080688477
1728893478420732700,6.809732666015625,3.6822822093963623,5.822698593139648,4.134786128997803
1728893478430711800,6.8197119140625,4.46518611907959,7.544129371643066,5.492298603057861
1728893478440721700,6.8297216796875,6.387730121612549,11.094730377197266,8.367734909057617
1728893478450731500,6.8397314453125,6.057330131530762,9.995792388916016,7.90086555480957
1728893478460710700,6.849710693359375,5.556941986083984,9.763554573059082,7.647080421447754
1728893478470690000,6.85968994140625,4.563348293304443,10.129867553710938,7.630321025848389
1728893478480638700,6.869638671875,0.828393816947937,12.643778800964355,7.405265808105469
1728893478490648300,6.8796484375,-1.3694833517074585,13.536816596984863,6.203376770019531
1728893478500658200,6.889658203125,-1.434126853942871,12.1194486618042,5.628767967224121
1728893478510637600,6.899637451171875,-0.016759412363171577,10.654197692871094,5.403713226318359
1728893478520586200,6.909586181640625,1.213860273361206,10.177751541137695,5.284003257751465
1728893478530595800,6.919595947265625,2.9305028915405273,9.674968719482422,5.2696380615234375
1728893478540605700,6.929605712890625,4.884171485900879,9.394847869873047,5.415684223175049
1728893478550585000,6.939585205078125,6.497863292694092,9.770736694335938,5.360617637634277
1728893478560564200,6.949564208984375,7.568071365356445,8.990227699279785,4.829104900360107
1728893478570574000,6.959573974609375,6.610390663146973,9.32302188873291,4.649539470672607
1728893478580553200,6.96955322265625,5.183446884155273,9.528923034667969,4.49870491027832
1728893478590532400,6.979532470703125,4.082113742828369,9.701305389404297,4.496310710906982
1728893478600511700,6.98951171875,3.4356794357299805,10.163386344909668,4.8267107009887695
1728893478610491000,6.999490966796875,3.0885202884674072,10.398017883300781,5.453991413116455
1728893478620500700,7.009500732421875,3.201047658920288,10.170568466186523,5.801150798797607
1728893478630480000,7.01947998046875,3.2369606494903564,9.588777542114258,5.420472621917725
1728893478640428800,7.0294287109375,3.3686418533325195,8.904036521911621,4.917690277099609
1728893478650438400,7.0394384765625,3.2824504375457764,8.250418663024902,4.5825018882751465
1728893478660448300,7.0494482421875,3.0885202884674072,8.001421928405762,4.486733913421631
1728893478670458000,7.0594580078125,2.911349296569824,7.929595947265625,4.553771495819092
1728893478680437200,7.069437255859375,3.07415509223938,7.711723804473877,4.3861775398254395
1728893478690447000,7.079447021484375,3.114856481552124,7.654263019561768,4.364629745483398
1728893478700426200,7.08942626953125,6.004657745361328,8.681375503540039,4.410119533538818
1728893478710436000,7.09943603515625,1.7501614093780518,8.547300338745117,3.88818359375
1728893478720415200,7.109415283203125,-1.5298948287963867,8.755595207214355,4.460397720336914
1728893478730425000,7.119425048828125,-3.840299606323242,8.686163902282715,3.936067581176758
1728893478740373800,7.129373779296875,-2.0638017654418945,8.252813339233398,3.9264907836914062
1728893478750383600,7.139383544921875,1.0103530883789062,8.676587104797363,3.818751811981201
1728893478760362800,7.14936279296875,4.050989151000977,9.454702377319336,3.313575267791748
1728893478770372600,7.15937255859375,5.085284233093262,9.593565940856934,2.5306711196899414
1728893478780321300,7.1693212890625,4.7836151123046875,9.823410034179688,1.8746598958969116
1728893478790331100,7.1793310546875,3.450044631958008,9.48343276977539,1.699883222579956
1728893478800340700,7.1893408203125,2.2002713680267334,9.3828763961792,1.6089035272598267
1728893478810350600,7.1993505859375,1.2880805730819702,10.299856185913086,1.4293384552001953
1728893478820329700,7.209329833984375,0.7948749661445618,10.014945983886719,2.126051187515259
1728893478830309000,7.21930908203125,1.2545616626739502,9.14585018157959,2.6240451335906982
1728893478840288300,7.229288330078125,1.8722656965255737,8.17380428314209,2.9520506858825684
1728893478850298000,7.239298095703125,2.6144683361053467,7.931990146636963,3.354276657104492
1728893478860277200,7.24927734375,3.1292216777801514,8.281543731689453,3.756502389907837
1728893478870287000,7.259287109375,2.9233202934265137,8.604761123657227,3.8139634132385254
1728893478880266200,7.269266357421875,2.255337953567505,7.723694801330566,3.8115692138671875
1728893478890276000,7.279276123046875,1.400607943534851,7.158663272857666,4.091690540313721
1728893478900286000,7.289285888671875,1.7046716213226318,6.840234279632568,4.431667327880859
1728893478910295600,7.299295654296875,2.207453966140747,6.751648902893066,4.704606533050537
1728893478920305400,7.309305419921875,2.252943754196167,8.458714485168457,4.632780075073242
1728893478930315300,7.319315185546875,2.140416383743286,10.453084945678711,3.931279182434082
1728893478940324900,7.329324951171875,2.1380221843719482,11.164162635803223,3.138798475265503
1728893478950304300,7.33930419921875,2.1739351749420166,11.288661003112793,2.389413356781006
1728893478960283400,7.349283447265625,2.4851813316345215,11.343728065490723,2.0853497982025146
1728893478970293200,7.359293212890625,2.693476915359497,11.602301597595215,2.123656988143921
1728893478980303000,7.36930322265625,2.8562827110290527,11.848904609680176,2.142810583114624
1728893478990312700,7.379312744140625,3.0597896575927734,11.882423400878906,1.9488801956176758
1728893479000292000,7.3892919921875,2.9328970909118652,11.382035255432129,1.7046716213226318
1728893479010301700,7.3993017578125,2.937685489654541,10.855310440063477,1.4269442558288574
1728893479020311600,7.4093115234375,3.3901896476745605,10.563218116760254,1.0295066833496094
1728893479030321400,7.4193212890625,3.3016040325164795,10.170568466186523,1.0558429956436157
1728893479040270000,7.42927001953125,3.31118106842041,10.26394271850586,0.9265560507774353
1728893479050279700,7.43927978515625,2.9520506858825684,9.44752025604248,0.3016694188117981
1728893479060289500,7.44928955078125,2.2002713680267334,8.813055992126465,0.5363011956214905
1728893479070299400,7.45929931640625,1.9728221893310547,8.607154846191406,1.036689281463623
1728893479080278500,7.469278564453125,1.3646949529647827,8.506598472595215,1.479616641998291
1728893479090288400,7.479288330078125,2.6216509342193604,9.011775016784668,1.8962076902389526
1728893479100267500,7.489267578125,1.7956513166427612,8.69095230102539,1.9584569931030273
1728893479110277400,7.49927734375,1.644816517829895,8.382100105285645,1.8626888990402222
1728893479120287200,7.509287353515625,1.6639702320098877,8.449137687683105,1.7717092037200928
1728893479130296800,7.519296875,2.1308395862579346,8.779537200927734,1.7525556087493896
1728893479140306700,7.529306640625,2.535459518432617,9.047688484191895,1.9632453918457031
1728893479150316300,7.53931640625,2.940079689025879,9.27034854888916,2.2433669567108154
1728893479160295700,7.549295654296875,2.8107926845550537,9.375694274902344,2.4612393379211426
1728893479170305500,7.559305419921875,3.2369606494903564,9.20091724395752,2.408566951751709
1728893479180254200,7.569254150390625,3.5027170181274414,9.162610054016113,2.4444799423217773
1728893479190263800,7.579263916015625,3.9815573692321777,9.196128845214844,2.3702597618103027
1728893479200273700,7.589273681640625,4.642356872558594,9.349357604980469,2.3127987384796143
1728893479210253000,7.599253173828125,4.6255974769592285,9.253589630126953,2.142810583114624
1728893479220232200,7.609232177734375,4.920084476470947,9.191340446472168,1.8818424940109253
1728893479230242000,7.619241943359375,5.513846397399902,9.299078941345215,1.7262194156646729
1728893479240221200,7.62922119140625,5.791574001312256,9.186552047729492,1.558625340461731
1728893479250231000,7.63923095703125,5.595249176025391,8.990227699279785,1.4724340438842773
1728893479260210200,7.649210205078125,5.403713226318359,8.810662269592285,1.3886369466781616
1728893479270220000,7.659219970703125,5.011064052581787,8.777143478393555,1.4700398445129395
1728893479280229600,7.669229736328125,4.6255974769592285,8.698134422302246,1.601720929145813
1728893479290239500,7.679239501953125,4.479551315307617,8.669404029846191,1.6639702320098877
1728893479300249300,7.689249267578125,4.206612586975098,8.549694061279297,1.7286136150360107
1728893479310259000,7.699259033203125,3.7205893993377686,8.485051155090332,1.8483237028121948
1728893479320268800,7.709268798828125,3.404554843902588,8.537723541259766,1.8315643072128296
1728893479330278700,7.719278564453125,3.2800562381744385,8.681375503540039,1.8722656965255737
1728893479340288300,7.729288330078125,3.2130186557769775,8.743624687194824,1.8722656965255737
1728893479350298000,7.739298095703125,3.1507694721221924,8.78432559967041,1.843535304069519
1728893479360308000,7.749307861328125,3.177105665206909,8.769960403442383,1.886630892753601
1728893479370317600,7.759317626953125,3.0861260890960693,8.662221908569336,1.9560627937316895
1728893479380327400,7.769327392578125,3.136404275894165,8.520963668823242,2.0446481704711914
1728893479390337300,7.779337158203125,3.1651346683502197,8.485051155090332,2.145204782485962
1728893479400347000,7.789346923828125,3.1914708614349365,8.528146743774414,2.10210919380188
1728893479410356700,7.799356689453125,3.28963303565979,8.516175270080566,2.049436569213867
1728893479420366300,7.809366455078125,3.383007049560547,8.547300338745117,2.0159177780151367
1728893479430345700,7.819345703125,3.339911460876465,8.523358345031738,2.013523578643799
1728893479440324900,7.829324951171875,3.3710360527038574,8.559270858764648,2.0901381969451904
1728893479450334700,7.839334716796875,3.40216064453125,8.53293514251709,2.1308395862579346
1728893479460313900,7.84931396484375,3.469198226928711,8.506598472595215,2.1092917919158936
1728893479470323700,7.85932373046875,3.6343982219696045,8.578424453735352,2.0446481704711914
1728893479480303000,7.86930322265625,3.734954595565796,8.712499618530273,1.9991583824157715
1728893479490312700,7.879312744140625,3.7205893993377686,8.779537200927734,2.0039467811584473
1728893479500292000,7.8892919921875,3.598485231399536,8.765172004699707,2.0901381969451904
1728893479510301700,7.8993017578125,3.533841609954834,8.779537200927734,2.209848165512085
1728893479520311600,7.9093115234375,3.466804027557373,8.743624687194824,2.341529369354248
1728893479530321400,7.9193212890625,3.4356794357299805,8.746018409729004,2.4468741416931152
1728893479540331000,7.9293310546875,3.529053211212158,8.937555313110352,2.43011474609375
1728893479550340900,7.9393408203125,3.5003228187561035,8.992621421813965,2.3558945655822754
1728893479560350700,7.949350830078125,3.5194764137268066,8.968679428100586,2.2433669567108154
1728893479570360300,7.9593603515625,3.3854012489318848,8.880094528198242,2.2194249629974365
1728893479580370200,7.9693701171875,3.4548330307006836,8.710105895996094,2.056619167327881
1728893479590349300,7.979349365234375,3.646369218826294,8.650250434875488,2.054224967956543
1728893479600328700,7.98932861328125,4.043806552886963,8.60236644744873,2.075772762298584
1728893479610307800,7.999307861328125,4.288015365600586,8.60236644744873,2.142810583114624
1728893479620287200,8.009287353515624,4.335899353027344,8.578424453735352,2.22660756111145
1728893479630296800,8.019296875,4.32871675491333,8.65743350982666,2.1595699787139893
1728893479640276200,8.029276123046875,4.2544965744018555,8.559270858764648,2.121262788772583
1728893479650285800,8.039285888671875,4.311957359313965,8.607154846191406,2.030282974243164
1728893479660295700,8.049295654296875,4.285621166229248,8.564059257507324,1.987187385559082
1728893479670305500,8.059305419921875,4.177882194519043,8.65982723236084,2.188300371170044
1728893479680284700,8.06928466796875,3.9456443786621094,8.59997272491455,2.300827741622925
1728893479690325000,8.079324951171875,3.7205893993377686,8.695740699768066,2.382230758666992
1728893479700304100,8.08930419921875,3.648763418197632,8.724471092224121,2.279279947280884
1728893479710314000,8.09931396484375,3.751713991165161,8.75080680847168,2.1930887699127197
1728893479720293000,8.109293212890625,3.9384617805480957,8.83939266204834,2.123656988143921
1728893479730303000,8.119302978515625,4.156333923339844,8.834604263305664,2.1380221843719482
1728893479740312800,8.129312744140625,4.290409564971924,8.887276649475098,2.1308395862579346
1728893479750322400,8.139322509765625,4.41969633102417,8.944737434387207,2.0446481704711914
1728893479760332300,8.149332275390625,4.637568473815918,9.016563415527344,2.03507137298584
1728893479770311400,8.1593115234375,5.0014872550964355,9.117119789123535,2.099714994430542
1728893479780290800,8.169290771484375,5.3797712326049805,9.361329078674316,2.229001760482788
1728893479790270000,8.17927001953125,5.592854976654053,9.428366661071777,2.3127987384796143
1728893479800249300,8.189249267578125,5.547365188598633,9.308655738830566,2.408566951751709
1728893479810259000,8.199259033203125,5.3342814445495605,9.488221168518066,2.693476915359497
1728893479820268800,8.209268798828125,4.876988887786865,9.222464561462402,2.6575639247894287
1728893479830248000,8.219248046875,4.3622355461120605,9.08838939666748,2.8778305053710938
1728893479840257800,8.2292578125,4.268861770629883,8.918401718139648,2.978386878967285
1728893479850267600,8.239267578125,4.41969633102417,8.808267593383789,3.1076738834381104
1728893479860277200,8.24927734375,4.503493309020996,8.743624687194824,3.1747114658355713
1728893479870287000,8.259287109375,4.311957359313965,8.887276649475098,3.1699230670928955
1728893479880297000,8.269296875,4.137180328369141,8.880094528198242,3.0861260890960693
1728893479890306600,8.279306640625,3.952826976776123,8.935160636901855,2.937685489654541
1728893479900316400,8.28931640625,3.8953661918640137,9.01895809173584,2.7030537128448486
1728893479910295600,8.299295654296875,3.758896589279175,9.097966194152832,2.5713725090026855
1728893479920275000,8.30927490234375,3.6128504276275635,9.004592895507812,2.315192937850952
1728893479930284800,8.319284912109374,3.665522813796997,9.016563415527344,2.2864625453948975
1728893479940264000,8.329263916015625,3.864241600036621,8.99740982055664,2.142810583114624
1728893479950273800,8.339273681640625,3.9384617805480957,8.937555313110352,2.0901381969451904
1728893479960253000,8.3492529296875,4.134786128997803,9.042900085449219,2.0901381969451904
1728893479970262800,8.3592626953125,4.158728122711182,8.944737434387207,2.097320795059204
1728893479980242000,8.369241943359375,4.331110954284668,8.856152534484863,2.1930887699127197
1728893479990251800,8.379251708984375,4.529829502105713,8.638279914855957,2.212242364883423
1728893480000261400,8.389261474609375,4.946420669555664,8.437167167663574,2.2433669567108154
1728893480010271200,8.399271240234375,5.458779811859131,8.209717750549316,2.27209734916687
1728893480020281000,8.409281005859375,5.585672378540039,8.259995460510254,2.1499931812286377
1728893480030290700,8.419290771484375,5.453991413116455,8.195352554321289,1.9847931861877441
1728893480040300500,8.429300537109375,5.092466831207275,8.219294548034668,1.7357962131500244
1728893480050310400,8.439310302734375,4.965574264526367,8.281543731689453,1.6543933153152466
1728893480060320000,8.449320068359375,4.920084476470947,8.310274124145508,1.644816517829895
1728893480070299400,8.45929931640625,4.766855716705322,8.233659744262695,1.7046716213226318
1728893480080278500,8.469278564453125,4.335899353027344,8.372523307800293,1.7717092037200928
1728893480090288400,8.479288330078125,4.129997730255127,8.08282470703125,1.824381709098816
1728893480100267500,8.489267578125,4.316745758056641,7.91283655166626,1.9752163887023926
1728893480110277400,8.49927734375,4.424484729766846,7.927201747894287,2.0925323963165283
1728893480120287200,8.509287353515624,4.484339714050293,7.939172744750977,2.2385785579681396
1728893480130296800,8.519296875,4.455609321594238,8.13789176940918,2.166752576828003
1728893480140306700,8.529306640625,4.558559894561768,8.341399192810059,2.1332337856292725
1728893480150316300,8.53931640625,4.113238334655762,8.652645111083984,1.9488801956176758
1728893480160295700,8.549295654296875,3.689464807510376,8.980650901794434,1.7477672100067139
1728893480170305500,8.559305419921875,3.9384617805480957,8.686163902282715,1.8626888990402222
1728893480180315100,8.569315185546875,3.931279182434082,8.865729331970215,1.9153614044189453
1728893480190325000,8.579324951171875,3.533841609954834,8.892065048217773,1.800439715385437
1728893480200334800,8.5893349609375,3.663128614425659,8.729259490966797,1.7118542194366455
1728893480210344400,8.599344482421875,3.912125587463379,7.805097579956055,1.7741034030914307
1728893480220354300,8.609354248046875,4.285621166229248,7.7213006019592285,1.6543933153152466
1728893480230364000,8.619364013671875,4.448426723480225,7.989450931549072,1.5634137392044067
1728893480240373800,8.629373779296875,4.414907932281494,7.781155586242676,1.5873557329177856
1728893480250353200,8.639353271484374,4.151545524597168,7.999027729034424,1.6424223184585571
1728893480260332300,8.649332275390625,4.4508209228515625,7.886500358581543,1.702277421951294
1728893480270311400,8.6593115234375,4.417302131652832,7.860164165496826,1.5634137392044067
1728893480280290800,8.669290771484375,4.259284973144531,7.924807548522949,1.4748282432556152
1728893480290300400,8.679300537109375,4.264073371887207,7.838616371154785,1.4413094520568848
1728893480300279800,8.68927978515625,4.314351558685303,7.893682956695557,1.4963760375976562
1728893480310289700,8.69928955078125,4.1395745277404785,7.965508937835693,1.556231141090393
1728893480320299300,8.70929931640625,4.120420932769775,7.996633529663086,1.6879122257232666
1728893480330278700,8.719278564453125,4.10366153717041,8.068459510803223,1.8507179021835327
1728893480340288300,8.729288330078125,4.098873138427734,8.159439086914062,2.1140801906585693
1728893480350298000,8.739298095703125,4.206612586975098,8.458714485168457,2.365471363067627
1728893480360308000,8.749307861328125,4.170699596405029,8.635885238647461,2.494758129119873
1728893480370317600,8.759317626953125,3.97916316986084,8.71728801727295,2.4827871322631836
1728893480380327400,8.769327392578125,3.93367338180542,9.059659004211426,2.5929205417633057
1728893480390306600,8.779306640625,4.003105163574219,9.23443603515625,2.782062292098999
1728893480400286000,8.789285888671875,4.1395745277404785,9.813833236694336,2.911349296569824
1728893480410295600,8.799295654296875,4.010287761688232,9.974244117736816,2.7964274883270264
1728893480420275000,8.80927490234375,3.8594532012939453,10.319009780883789,2.9759926795959473
1728893480430284800,8.819284912109374,3.7253777980804443,10.390835762023926,3.0837318897247314
1728893480440264000,8.829263916015625,3.469198226928711,10.32858657836914,3.2321722507476807
1728893480450273800,8.839273681640625,2.920926094055176,9.93354320526123,3.0621838569641113
1728893480460283400,8.849283447265625,2.8658595085144043,10.268731117248535,3.361459255218506
1728893480470293200,8.859293212890625,3.1507694721221924,10.400412559509277,3.576937437057495
1728893480480303000,8.86930322265625,2.741360902786255,9.856928825378418,3.1435868740081787
1728893480490312700,8.879312744140625,3.090914487838745,10.311826705932617,3.600879430770874
1728893480500322600,8.889322509765625,3.155557870864868,9.96945571899414,3.177105665206909
1728893480510332200,8.899332275390625,2.8419175148010254,9.445125579833984,3.1747114658355713
1728893480520342000,8.909342041015625,3.5386300086975098,9.100360870361328,2.6216509342193604
1728893480530351900,8.919351806640625,3.5266590118408203,8.892065048217773,2.121262788772583
1728893480540331000,8.9293310546875,3.1531636714935303,8.31985092163086,0.7182605266571045
1728893480550310400,8.939310302734375,2.2912509441375732,8.848969459533691,-3.7876269817352295
1728893480560289500,8.94928955078125,7.592013359069824,12.294225692749023,-0.5003881454467773
1728893480570299400,8.95929931640625,8.774748802185059,10.639832496643066,-0.6057330369949341
1728893480580278500,8.969278564453125,7.058106422424316,9.955090522766113,-0.038307227194309235
1728893480590288400,8.979288330078125,5.9304375648498535,9.165003776550293,0.5626373887062073
1728893480600267500,8.989267578125,5.185841083526611,8.195352554321289,1.290474772453308
1728893480610277400,8.99927734375,4.520252704620361,7.580042362213135,1.8076223134994507
1728893480620287200,9.009287353515624,4.307168960571289,7.63989782333374,2.0446481704711914
1728893480630296800,9.019296875,4.309563159942627,7.738059997558594,2.054224967956543
1728893480640306700,9.029306640625,4.355052947998047,7.795520782470703,2.3343467712402344
1728893480650316300,9.03931640625,3.9839515686035156,7.675810813903809,2.5761611461639404
1728893480660326100,9.049326171875,3.7924153804779053,7.532158374786377,2.7437551021575928
1728893480670336000,9.0593359375,3.6966474056243896,7.113173484802246,2.873042106628418
1728893480680315100,9.069315185546875,3.1938650608062744,6.8043212890625,3.0813376903533936
1728893480690325000,9.079324951171875,2.7006595134735107,6.794744491577148,3.112462282180786
1728893480700334800,9.0893349609375,2.497152328491211,7.058106422424316,3.0166940689086914
1728893480710344400,9.099344482421875,2.33913516998291,7.359776020050049,2.9664158821105957
1728893480720354300,9.109354248046875,2.47560453414917,7.762001991271973,3.023876667022705
1728893480730364000,9.119364013671875,2.612074136734009,8.334216117858887,3.0765492916107178
1728893480740404200,9.129404296875,2.6360161304473877,8.868123054504395,3.045424461364746
1728893480750414000,9.1394140625,2.2912509441375732,9.50498104095459,3.0526070594787598
1728893480760424000,9.149423828125,1.6424223184585571,10.11550235748291,3.066972494125366
1728893480770433500,9.15943359375,1.0031704902648926,10.522516250610352,3.1244332790374756
1728893480780413000,9.169412841796875,0.5913678407669067,10.915165901184082,3.2106244564056396
1728893480790422500,9.179422607421875,0.6991068720817566,10.896012306213379,3.2369606494903564
1728893480800432400,9.189432373046875,1.1300631761550903,10.225635528564453,3.3470940589904785
1728893480810442200,9.199442138671875,1.6112977266311646,10.168174743652344,3.84269380569458
1728893480820451800,9.209451904296875,2.183511972427368,9.911994934082031,4.752490520477295
1728893480830461700,9.219461669921875,2.741360902786255,9.255983352661133,4.173093795776367
1728893480840471600,9.229471435546875,2.940079689025879,9.531316757202148,4.738125324249268
1728893480850481200,9.239481201171875,2.3965959548950195,9.023746490478516,4.197035789489746
1728893480860491000,9.249490966796875,2.5306711196899414,9.730035781860352,4.393360137939453
1728893480870470100,9.25947021484375,2.3487119674682617,9.634267807006836,3.6966474056243896
1728893480880480000,9.26947998046875,2.319981336593628,9.552865028381348,4.211400985717773
1728893480890489900,9.27948974609375,2.298433542251587,10.08198356628418,3.6822822093963623
1728893480900499500,9.28949951171875,2.2385785579681396,9.41639518737793,3.646369218826294
1728893480910509300,9.29950927734375,2.315192937850952,9.718064308166504,4.0294413566589355
1728893480920519200,9.309519287109374,2.343923568725586,9.825803756713867,3.5434184074401855
1728893480930528800,9.31952880859375,2.1715409755706787,9.332598686218262,3.7708675861358643
1728893480940538600,9.32953857421875,2.2816741466522217,10.110713958740234,3.2824504375457764
1728893480950517800,9.339517822265625,2.341529369354248,10.005369186401367,3.1459810733795166
1728893480960497200,9.3494970703125,2.3511061668395996,8.848969459533691,2.8347349166870117
1728893480970476300,9.359476318359375,2.851494312286377,9.679757118225098,2.8874073028564453
1728893480980455700,9.36945556640625,3.35667085647583,9.706093788146973,2.782062292098999
1728893480990465300,9.37946533203125,3.138798475265503,9.57201862335205,2.3918075561523438
1728893481000444700,9.389444580078125,3.021482467651367,9.287108421325684,1.5825673341751099
1728893481010454300,9.399454345703125,2.7557260990142822,9.373299598693848,1.867477297782898
1728893481020433700,9.40943359375,2.583343744277954,8.293514251708984,0.8355764150619507
1728893481030443300,9.419443359375,3.3303346633911133,8.635885238647461,0.4141969084739685
1728893481040422700,9.429422607421875,5.058948040008545,9.057265281677246,0.19871874153614044
1728893481050432300,9.439432373046875,7.254431247711182,9.17936897277832,0.009576806798577309
1728893481060472600,9.44947265625,6.655880928039551,8.607154846191406,0.4381389021873474
1728893481070482400,9.459482421875,5.145139217376709,8.300697326660156,1.4891934394836426
1728893481080461600,9.469461669921875,4.338293552398682,8.489839553833008,2.27209734916687
1728893481090471400,9.479471435546875,3.8810009956359863,8.911218643188477,2.7940332889556885
1728893481100481300,9.489481201171875,3.251325845718384,8.889671325683594,2.875436305999756
1728893481110491000,9.499490966796875,2.8586769104003906,8.56645393371582,2.676717519760132
1728893481120500700,9.509500732421875,2.5522189140319824,8.848969459533691,2.5498247146606445
1728893481130510600,9.519510498046875,2.3343467712402344,9.0859956741333,2.6216509342193604
1728893481140520200,9.529520263671875,2.008735179901123,9.524134635925293,2.717418909072876
1728893481150530000,9.539530029296875,1.7741034030914307,9.701305389404297,2.875436305999756
1728893481160540000,9.549539794921875,1.6687586307525635,9.739612579345703,2.9879636764526367
1728893481170549500,9.559549560546875,1.8195933103561401,9.636661529541016,3.0358476638793945
1728893481180559400,9.569559326171875,1.4867992401123047,9.6989107131958,3.160346269607544
1728893481190569200,9.5795693359375,1.482010841369629,9.457097053527832,3.1076738834381104
1728893481200578800,9.589578857421875,1.4891934394836426,9.229647636413574,3.0119056701660156
1728893481210558200,9.59955810546875,1.436521053314209,9.284713745117188,2.911349296569824
1728893481220537300,9.609537353515625,1.1492167711257935,9.588777542114258,2.9735984802246094
1728893481230516700,9.619516845703124,1.072602391242981,9.749189376831055,3.1004912853240967
1728893481240495900,9.629495849609375,0.6943184733390808,9.847352027893066,3.292027235031128
1728893481250505700,9.639505615234375,0.811634361743927,9.986215591430664,3.5194764137268066
1728893481260484900,9.64948486328125,1.3670891523361206,10.362105369567871,3.550601005554199
1728893481270464000,9.659464111328125,1.9776105880737305,10.524910926818848,3.6607344150543213
1728893481280473900,9.669473876953125,1.766920804977417,10.357316970825195,3.9863457679748535
1728893481290483700,9.679483642578125,1.6639702320098877,10.383652687072754,4.134786128997803
1728893481300493300,9.689493408203125,1.3694833517074585,9.998186111450195,4.369418144226074
1728893481310503200,9.699503173828125,1.4963760375976562,9.289502143859863,4.393360137939453
1728893481320513000,9.709512939453125,1.4269442558288574,8.975862503051758,4.441244125366211
1728893481330492200,9.7194921875,1.4317326545715332,8.772355079650879,4.431667327880859
1728893481340502000,9.729501953125,1.6065093278884888,8.738836288452148,4.4532151222229
1728893481350481200,9.739481201171875,1.6903064250946045,8.628703117370605,4.467580318450928
1728893481360460500,9.74946044921875,1.8148049116134644,8.592789649963379,4.481945514678955
1728893481370470100,9.75947021484375,1.9177556037902832,8.458714485168457,4.529829502105713
1728893481380449500,9.769449462890625,2.166752576828003,8.245630264282227,4.513070106506348
1728893481390459100,9.779459228515625,2.7078421115875244,8.123526573181152,4.072536945343018
1728893481400438500,9.7894384765625,3.579331636428833,8.56884765625,3.5027170181274414
1728893481410448100,9.7994482421875,3.0526070594787598,8.152256965637207,3.890577793121338
1728893481420427500,9.809427490234375,2.980781078338623,8.324639320373535,3.9432501792907715
1728893481430437400,9.819437255859375,3.2968156337738037,8.446743965148926,3.9671921730041504
1728893481440447000,9.829447021484375,3.1004912853240967,8.731653213500977,3.9815573692321777
1728893481450456800,9.839456787109375,3.203441858291626,8.947132110595703,4.141968727111816
1728893481460466400,9.849466552734375,3.7612907886505127,9.100360870361328,4.043806552886963
1728893481470476300,9.859476318359375,4.005499362945557,9.169792175292969,3.9264907836914062
1728893481480486100,9.869486083984375,3.928884983062744,9.131484985351562,3.847482204437256
1728893481490495700,9.879495849609375,3.732560396194458,9.006986618041992,3.8714241981506348
1728893481500475100,9.88947509765625,3.557783842086792,8.884882926940918,3.9193081855773926
1728893481510454300,9.899454345703125,2.3582887649536133,8.971074104309082,4.189853191375732
1728893481520433700,9.90943359375,3.0382418632507324,9.136273384094238,4.206612586975098
1728893481530443300,9.919443359375,3.711012601852417,9.074024200439453,4.2329487800598145
1728893481540422700,9.929422607421875,2.5282769203186035,8.724471092224121,4.357447147369385
1728893481550432300,9.939432373046875,1.9033904075622559,8.396465301513672,4.326322555541992
1728893481560411600,9.94941162109375,-1.3527239561080933,8.339004516601562,4.079719543457031
1728893481570421500,9.95942138671875,2.322375535964966,7.405265808105469,4.197035789489746
1728893481580431000,9.96943115234375,2.183511972427368,7.955932140350342,4.2760443687438965
1728893481590410500,9.979410400390625,2.3582887649536133,7.441178798675537,4.108449935913086
1728893481600389600,9.9893896484375,1.599326729774475,6.955155849456787,3.9193081855773926
1728893481610369000,9.999369140625,1.4389152526855469,7.01979923248291,3.248931646347046
1728893481620409000,10.0094091796875,-0.43335050344467163,7.295132637023926,3.3686418533325195
1728893481630388500,10.019388427734375,0.4357447028160095,8.039729118347168,3.442862033843994
1728893481640398000,10.029398193359375,1.659181833267212,7.850587368011475,3.4979286193847656
1728893481650408000,10.039407958984375,1.644816517829895,7.850587368011475,3.4572272300720215
1728893481660417800,10.049417724609375,0.8259995579719543,7.6351094245910645,3.383007049560547
1728893481670427400,10.059427490234375,0.9911994934082031,7.915230751037598,3.423708438873291
1728893481680437200,10.069437255859375,1.2473790645599365,8.135497093200684,3.4955344200134277
1728893481690447000,10.079447021484375,1.0582371950149536,8.123526573181152,3.6343982219696045
1728893481700426200,10.08942626953125,1.0558429956436157,8.034940719604492,3.7205893993377686
1728893481710405600,10.099405517578125,1.2330138683319092,7.996633529663086,3.691859006881714
1728893481720384800,10.109384765625,1.4389152526855469,8.037335395812988,3.667917013168335
1728893481730394600,10.11939453125,1.6208745241165161,7.872135162353516,3.421314239501953
1728893481740404200,10.129404296875,2.1116859912872314,7.826645374298096,2.913743495941162
1728893481750383600,10.139383544921875,2.0039467811584473,7.965508937835693,2.5282769203186035
1728893481760362800,10.14936279296875,1.173158884048462,8.14028549194336,2.559401512145996
1728893481770372600,10.15937255859375,0.6105214357376099,7.879317760467529,3.114856481552124
1728893481780351700,10.169351806640625,0.7326257228851318,7.649474620819092,3.708618402481079
1728893481790361600,10.179361572265625,0.5315127968788147,7.754819393157959,4.0749311447143555
1728893481800340700,10.1893408203125,0.2944868206977844,7.948749542236328,4.321534156799316
1728893481810320100,10.199320068359375,0.06464344263076782,7.869740962982178,4.529829502105713
1728893481820329700,10.209329833984375,0.24660277366638184,7.738059997558594,4.632780075073242
1728893481830339600,10.219339599609375,0.6105214357376099,7.936778545379639,4.702212333679199
1728893481840349400,10.229349365234375,1.1420341730117798,8.099584579467773,4.527435302734375
1728893481850359000,10.239359130859375,1.414973258972168,8.38449478149414,4.489128112792969
1728893481860338400,10.24933837890625,1.2617442607879639,9.502586364746094,4.5609540939331055
1728893481870317600,10.259317626953125,0.9050082564353943,9.859322547912598,4.745307922363281
1728893481880297000,10.269296875,0.4572925269603729,9.57441234588623,5.2696380615234375
1728893481890306600,10.279306640625,0.44771572947502136,9.533711433410645,5.746084213256836
1728893481900255500,10.28925537109375,0.7972691655158997,9.883264541625977,6.387730121612549
1728893481910265000,10.29926513671875,1.522712230682373,11.008539199829102,6.392518520355225
1728893481920275000,10.30927490234375,0.9433154463768005,11.652579307556152,6.2392897605896
1728893481930254000,10.319254150390625,0.9792284965515137,11.956643104553223,6.296750545501709
1728893481940233500,10.3292333984375,0.9409212470054626,11.808202743530273,6.452373504638672
1728893481950243000,10.3392431640625,1.1228805780410767,11.578359603881836,6.57926607131958
1728893481960253000,10.3492529296875,1.4484920501708984,11.647790908813477,6.655880928039551
1728893481970262800,10.3592626953125,1.556231141090393,11.839327812194824,6.648698329925537
1728893481980242000,10.369241943359375,1.6089035272598267,11.872846603393555,6.5265936851501465
1728893481990251800,10.379251708984375,1.7956513166427612,11.578359603881836,6.471527099609375
1728893482000261400,10.389261474609375,1.9345149993896484,11.142614364624023,6.315904140472412
1728893482010271200,10.399271240234375,1.8483237028121948,10.498574256896973,5.971138954162598
1728893482020281000,10.409281005859375,1.5155296325683594,10.38604736328125,6.086060523986816
1728893482030290700,10.419290771484375,1.4867992401123047,10.383652687072754,6.052541732788086
1728893482040270000,10.42927001953125,1.3958195447921753,10.146626472473145,5.906495571136475
1728893482050249200,10.439249267578125,1.2018892765045166,9.888052940368652,5.583278179168701
1728893482060259000,10.449259033203125,1.2330138683319092,9.330204010009766,5.583278179168701
1728893482070238200,10.45923828125,1.3479355573654175,9.08838939666748,5.336675643920898
1728893482080217600,10.469217529296875,1.3551181554794312,8.983044624328613,5.212177276611328
1728893482090196700,10.47919677734375,1.1755530834197998,8.774748802185059,4.98472785949707
1728893482100206600,10.48920654296875,0.9433154463768005,8.38688850402832,4.99669885635376
1728893482110216200,10.49921630859375,1.2258312702178955,8.453926086425781,4.855441093444824
1728893482120195600,10.509195556640625,1.2306196689605713,8.006210327148438,4.797980308532715
1728893482130205400,10.519205322265625,1.192312479019165,7.704541206359863,4.707000732421875
1728893482140184600,10.5291845703125,1.37906014919281,7.915230751037598,4.534617900848389
1728893482150194400,10.5391943359375,1.5155296325683594,8.073247909545898,4.338293552398682
1728893482160204000,10.5492041015625,1.723825216293335,7.489062786102295,4.120420932769775
1728893482170214000,10.5592138671875,2.0590133666992188,7.647080421447754,4.129997730255127
1728893482180193000,10.569193115234375,2.6001031398773193,7.690176010131836,3.7876269817352295
1728893482190172400,10.57917236328125,2.516305923461914,7.556100368499756,3.5721490383148193
1728893482200151600,10.589151611328125,2.674323320388794,8.04691219329834,3.5625722408294678
1728893482210131000,10.599130859375,2.8443117141723633,7.613561630249023,3.6343982219696045
1728893482220140500,10.609140625,3.00711727142334,7.766790390014648,3.801992416381836
1728893482230120000,10.619119873046875,2.9472622871398926,7.922413349151611,4.062960147857666
1728893482240099000,10.62909912109375,2.9065608978271484,7.960720539093018,4.180276393890381
1728893482250078500,10.639078369140625,2.8610711097717285,8.070854187011719,4.285621166229248
1728893482260088000,10.649088134765625,2.559401512145996,8.17141056060791,4.4077253341674805
1728893482270098000,10.659097900390625,2.4157495498657227,8.365341186523438,4.24970817565918
1728893482280107800,10.669107666015625,2.2385785579681396,7.977479934692383,4.197035789489746
1728893482290117400,10.679117431640625,2.027888774871826,8.1139497756958,4.395754337310791
1728893482300096800,10.6890966796875,2.1811177730560303,8.252813339233398,4.395754337310791
1728893482310076000,10.699075927734375,1.680729627609253,8.020575523376465,4.486733913421631
1728893482320024600,10.709024658203125,1.290474772453308,7.702147006988525,4.683058738708496
1728893482330034400,10.719034423828125,1.599326729774475,7.977479934692383,4.651933670043945
1728893482340044300,10.729044189453125,1.3335703611373901,7.280767440795898,4.51067590713501
1728893482350054000,10.739053955078125,0.7948749661445618,7.412448406219482,4.788403511047363
1728893482360063700,10.749063720703125,0.9361328482627869,7.546523571014404,4.93923807144165
1728893482370043000,10.75904296875,0.9672574996948242,7.817068576812744,5.188235282897949
1728893482380022300,10.769022216796875,1.3215993642807007,8.935160636901855,5.264849662780762
1728893482390032000,10.779031982421875,0.524330198764801,7.297526836395264,4.699818134307861
1728893482400011300,10.78901123046875,-0.8571242094039917,7.237671852111816,5.12119722366333
1728893482410021000,10.799021240234374,-0.9002198576927185,7.386112213134766,5.638344764709473
1728893482420030700,10.80903076171875,-0.395043283700943,7.5201873779296875,5.925649166107178
1728893482430040600,10.81904052734375,-0.21547815203666687,7.378929615020752,6.004657745361328
1728893482440050200,10.82905029296875,-0.14844051003456116,7.184999465942383,5.896918773651123
1728893482450060000,10.83906005859375,-0.10773907601833344,7.173028469085693,5.937620162963867
1728893482460070000,10.84906982421875,-0.10055647045373917,7.422025203704834,5.987898349761963
1728893482470049000,10.859049072265625,0.06703764945268631,7.575253963470459,6.0597243309021
1728893482480028400,10.8690283203125,0.3016694188117981,7.817068576812744,6.098031520843506
1728893482490007600,10.879007568359375,0.6823474764823914,8.243236541748047,5.96874475479126
1728893482499987000,10.888987060546874,1.015141487121582,8.80587387084961,5.657498836517334
1728893482509996500,10.89899658203125,0.9552865028381348,9.030928611755371,5.564124584197998
1728893482520006400,10.90900634765625,0.6823474764823914,8.547300338745117,5.698200225830078
1728893482529985500,10.918985595703125,0.9648633003234863,8.89685344696045,5.762843608856201
1728893482539995400,10.928995361328125,1.2641384601593018,8.899248123168945,5.70777702331543
1728893482550005200,10.939005126953125,1.170764684677124,8.561665534973145,5.724536418914795
1728893482560014800,10.949014892578125,1.580173134803772,8.774748802185059,5.5976433753967285
1728893482570024700,10.959024658203125,1.6136919260025024,8.83699893951416,5.571307182312012
1728893482580034300,10.969034423828125,1.3551181554794312,8.47547435760498,5.657498836517334
1728893482590044200,10.979044189453125,1.1851298809051514,8.317456245422363,5.781997203826904
1728893482600054000,10.989053955078125,1.4413094520568848,8.65982723236084,5.75326681137085
1728893482610033200,10.999033203125,1.2090718746185303,8.540117263793945,5.736507415771484
1728893482620012500,11.009012451171875,0.2825157940387726,8.413225173950195,6.0597243309021
1728893482630022100,11.019022216796875,0.5506663918495178,8.449137687683105,5.992686748504639
1728893482640032000,11.029031982421875,1.9536685943603516,8.44195556640625,5.602431774139404
1728893482650041900,11.039041748046875,1.6496049165725708,8.154650688171387,5.458779811859131
1728893482660021000,11.04902099609375,1.9919757843017578,8.31985092163086,5.137956619262695
1728893482670000000,11.059000244140625,2.169146776199341,8.24084186553955,4.884171485900879
1728893482680010000,11.069010009765625,2.580949544906616,7.7428483963012695,5.035006046295166
1728893482690019800,11.079019775390625,2.205059766769409,7.6111674308776855,5.1116204261779785
1728893482700029400,11.089029541015625,1.8507179021835327,7.580042362213135,5.023035049438477
1728893482710039300,11.099039306640625,2.2361843585968018,7.307103633880615,4.891354084014893
1728893482720049200,11.109049072265625,1.9919757843017578,7.0341644287109375,4.845864295959473
1728893482730058800,11.119058837890625,2.0877439975738525,7.259219646453857,4.8482584953308105
1728893482740068600,11.129068603515625,2.006340980529785,7.230489253997803,4.797980308532715
1728893482750078500,11.139078369140625,2.140416383743286,6.957550048828125,4.721365928649902
1728893482760088000,11.149088134765625,1.8507179021835327,5.949591159820557,4.903325080871582
1728893482770098000,11.159097900390625,1.2306196689605713,5.664681434631348,5.166687488555908
1728893482780107800,11.169107666015625,1.278503656387329,5.928043365478516,5.231330871582031
1728893482790087000,11.1790869140625,1.8291701078414917,5.8873419761657715,5.018246650695801
1728893482800066000,11.189066162109375,2.2409727573394775,5.544970989227295,4.76924991607666
1728893482810045400,11.19904541015625,3.222595453262329,6.823474884033203,4.738125324249268
1728893482820024600,11.209024658203125,2.873042106628418,7.668628215789795,4.575319290161133
1728893482830004000,11.21900390625,2.1475989818573,7.893682956695557,4.541800498962402
1728893482839983000,11.228983154296875,2.0254945755004883,7.893682956695557,4.46518611907959
1728893482849993000,11.238992919921875,2.0805611610412598,7.929595947265625,4.292803764343262
1728893482860002800,11.2490029296875,2.360682964324951,7.795520782470703,4.0749311447143555
1728893482869982000,11.25898193359375,2.693476915359497,7.55131196975708,3.847482204437256
1728893482879991800,11.26899169921875,2.9496564865112305,7.390900611877441,3.646369218826294
1728893482890001400,11.27900146484375,3.114856481552124,7.316680431365967,3.536235809326172
1728893482900041700,11.289041748046875,2.9735984802246094,7.223306655883789,3.4596214294433594
1728893482910021000,11.299021240234374,2.920926094055176,7.026981830596924,3.4548330307006836
1728893482920030700,11.30903076171875,2.875436305999756,6.84981107711792,3.450044631958008
1728893482930040600,11.31904052734375,2.5522189140319824,6.823474884033203,3.5434184074401855
1728893482940050200,11.32905029296875,2.166752576828003,6.7923502922058105,3.670311212539673
1728893482950029600,11.339029541015625,2.121262788772583,6.825869083404541,3.7852327823638916
1728893482960008700,11.3490087890625,1.9704279899597168,6.9910688400268555,3.758896589279175
1728893482970018600,11.3590185546875,1.7860745191574097,7.240066051483154,3.823540210723877
1728893482979997700,11.368997802734375,1.6376339197158813,7.275979042053223,3.8283286094665527
1728893482990007600,11.379007568359375,1.5322890281677246,7.364564418792725,3.794809579849243
1728893483000017400,11.389017333984375,2.432508945465088,7.785943984985352,3.8283286094665527
1728893483010027000,11.399027099609375,1.1228805780410767,8.26478385925293,3.488351821899414
1728893483020006400,11.40900634765625,1.6735470294952393,8.061277389526367,3.708618402481079
1728893483029985500,11.418985595703125,1.4221558570861816,7.939172744750977,4.206612586975098
1728893483039965000,11.42896484375,1.0319008827209473,8.485051155090332,4.182670593261719
1728893483049974500,11.438974609375,1.2761094570159912,8.875306129455566,4.405331134796143
1728893483059954000,11.448953857421875,0.5003881454467773,8.645462036132812,4.865017890930176
1728893483069963500,11.458963623046875,0.42856210470199585,8.705317497253418,5.260061264038086
1728893483079973400,11.468973388671875,0.304063618183136,8.583212852478027,5.638344764709473
1728893483089952800,11.478952880859374,0.3423708379268646,8.576030731201172,5.724536418914795
1728893483099932000,11.488931884765625,0.20111294090747833,9.133879661560059,5.449203014373779
1728893483109911000,11.4989111328125,-0.12449848651885986,9.30386734008789,5.394136428833008
1728893483119921000,11.5089208984375,-0.22266076505184174,9.366117477416992,5.600037574768066
1728893483129900000,11.518900146484375,-0.14365209639072418,9.454702377319336,5.748478412628174
1728893483139910000,11.528909912109375,0.3232172429561615,9.48343276977539,5.724536418914795
1728893483149919700,11.538919677734375,0.7829039692878723,9.493009567260742,5.566518783569336
1728893483159899000,11.54889892578125,1.0319008827209473,9.430760383605957,5.370194435119629
1728893483169878300,11.558878173828125,1.1851298809051514,9.497797966003418,5.114014625549316
1728893483179857400,11.568857421875,1.656787633895874,9.5408935546875,4.93923807144165
1728893483189867300,11.5788671875,1.9560627937316895,9.095572471618652,4.855441093444824
1728893483199876900,11.588876953125,2.4875755310058594,8.619126319885254,4.944026470184326
1728893483209886700,11.59888671875,2.6575639247894287,8.669404029846191,4.932055473327637
1728893483219865900,11.608865966796875,2.4396915435791016,8.899248123168945,4.8602294921875
1728893483229845200,11.61884521484375,2.43011474609375,8.78193187713623,4.965574264526367
1728893483239855000,11.628855224609374,1.944091796875,8.513781547546387,4.884171485900879
1728893483249864700,11.63886474609375,1.8124107122421265,8.312667846679688,5.049371242523193
1728893483259874600,11.64887451171875,1.6855180263519287,8.681375503540039,4.917690277099609
1728893483269853700,11.658853759765625,1.161187767982483,8.62630844116211,4.790797710418701
1728893483279833000,11.6688330078125,0.849941611289978,8.362946510314941,5.04218864440918
1728893483289842700,11.6788427734375,1.479616641998291,9.133879661560059,4.797980308532715
1728893483299822000,11.688822021484375,1.0055646896362305,8.87051773071289,4.642356872558594
1728893483309831700,11.698831787109375,1.3455413579940796,9.071630477905273,4.5825018882751465
1728893483319841500,11.708841552734375,1.359906554222107,8.889671325683594,4.345476150512695
1728893483329851400,11.718851318359375,1.3646949529647827,8.65743350982666,4.278438568115234
1728893483339830500,11.72883056640625,1.4844050407409668,9.138668060302734,4.206612586975098
1728893483349840400,11.73884033203125,1.4293384552001953,9.41639518737793,4.168305397033691
1728893483359819500,11.748819580078125,1.6424223184585571,9.124302864074707,3.97916316986084
1728893483369799000,11.758798828125,1.8722656965255737,9.133879661560059,3.804386615753174
1728893483379808500,11.76880859375,1.9512743949890137,9.167398452758789,3.5649664402008057
1728893483389818400,11.778818359375,1.8842366933822632,9.148244857788086,3.3638534545898438
1728893483399797500,11.788797607421875,1.7884687185287476,8.552088737487793,3.179499864578247
1728893483409777000,11.79877685546875,2.2457611560821533,8.42040729522705,3.0382418632507324
1728893483419786800,11.808786865234374,2.537853717803955,8.401253700256348,2.7940332889556885
1728893483429766000,11.818765869140625,2.6886885166168213,8.346187591552734,2.516305923461914
1728893483439714600,11.828714599609375,2.779668092727661,8.31985092163086,2.3487119674682617
1728893483449724400,11.838724365234375,2.6144683361053467,8.283937454223633,2.2840683460235596
1728893483459734000,11.848734130859375,2.2864625453948975,7.960720539093018,2.3080103397369385
1728893483469713400,11.85871337890625,1.9560627937316895,7.766790390014648,2.2601263523101807
1728893483479662000,11.868662109375,1.6974890232086182,7.9846625328063965,2.188300371170044
1728893483489672000,11.878671875,1.3958195447921753,8.11634349822998,2.0183119773864746
1728893483499681500,11.888681640625,0.9840168952941895,8.38688850402832,2.0207061767578125
1728893483509661000,11.898660888671875,0.6655880808830261,8.362946510314941,1.900996208190918
1728893483519640000,11.90864013671875,0.586579442024231,8.49941635131836,1.9345149993896484
1728893483529650000,11.91864990234375,0.35673606395721436,8.391676902770996,1.9847931861877441
1728893483539629000,11.928629150390625,0.2801215946674347,8.286332130432129,2.006340980529785
1728893483549639000,11.938638916015625,0.033518824726343155,7.558494567871094,1.9919757843017578
1728893483559618000,11.9486181640625,-0.23702596127986908,6.691793918609619,2.008735179901123
1728893483569628000,11.9586279296875,-0.5123591423034668,6.631938934326172,2.169146776199341
1728893483579607300,11.968607177734375,-0.6799532771110535,6.289567947387695,2.0398597717285156
1728893483589617000,11.978616943359375,-0.5482721924781799,5.640739440917969,1.968033790588379
1728893483599565600,11.988565673828125,-0.19632454216480255,5.8873419761657715,1.6950948238372803
1728893483609575400,11.998575439453125,0.3998316824436188,7.46033239364624,1.335964560508728
1728893483619585300,12.008585205078125,0.19871874153614044,7.457938194274902,0.9624691009521484
1728893483629595000,12.018594970703125,0.17956513166427612,7.046135425567627,0.7254431247711182
1728893483639574300,12.02857421875,0.3423708379268646,6.655880928039551,0.5913678407669067
1728893483649583900,12.038583984375,0.6919242739677429,6.967126846313477,0.2801215946674347
1728893483659563300,12.048563232421875,0.42616790533065796,7.510610580444336,0.22505496442317963
1728893483669542400,12.05854248046875,0.9050082564353943,7.465120792388916,-0.24899697303771973
1728893483679552300,12.06855224609375,2.056619167327881,7.393294811248779,-0.17717093229293823
1728893483689562000,12.07856201171875,2.078166961669922,7.781155586242676,-0.11252748221158981
1728893483699571700,12.08857177734375,2.9472622871398926,8.08282470703125,-0.31124621629714966
1728893483709581600,12.09858154296875,3.021482467651367,8.26478385925293,-0.7134721279144287
1728893483719591400,12.10859130859375,3.361459255218506,9.275136947631836,-0.9217676520347595
1728893483729570600,12.118570556640625,4.398148536682129,8.389283180236816,-1.8698714971542358
1728893483739519200,12.128519287109375,5.183446884155273,8.42040729522705,-1.7932571172714233
1728893483749529000,12.138529052734375,7.072471618652344,9.428366661071777,-2.4205379486083984
1728893483759539000,12.1485390625,7.376535415649414,10.596736907958984,-2.9017724990844727
1728893483769518000,12.15851806640625,7.225700855255127,11.848904609680176,-2.6431987285614014
1728893483779497200,12.168497314453125,7.891288757324219,12.641385078430176,-2.5234885215759277
1728893483789507000,12.178507080078125,7.326257228851318,13.175292015075684,-2.4875755310058594
1728893483799486200,12.188486328125,6.414066314697266,13.261483192443848,-2.540247917175293
1728893483809465600,12.198465576171875,6.035782337188721,12.878411293029785,-2.9735984802246094
1728893483819475500,12.208475341796875,5.676652431488037,12.45463752746582,-3.294421434402466
1728893483829485000,12.218485107421875,5.552153587341309,12.356474876403809,-3.490746021270752
1728893483839464400,12.22846435546875,5.365406036376953,12.370840072631836,-3.380612850189209
1728893483849474000,12.23847412109375,5.17626428604126,12.430695533752441,-3.2848446369171143
1728893483859453400,12.248453369140625,4.924872875213623,12.375628471374512,-3.270479440689087
1728893483869463000,12.258463134765625,4.766855716705322,12.18648624420166,-3.1052796840667725
1728893483879442400,12.2684423828125,4.865017890930176,11.736376762390137,-3.2393548488616943
1728893483889452000,12.2784521484375,5.0900726318359375,11.250353813171387,-3.201047658920288
1728893483899462000,12.2884619140625,4.975151062011719,10.860098838806152,-3.071760892868042
1728893483909471700,12.2984716796875,4.711789131164551,10.673351287841797,-3.0406360626220703
1728893483919451000,12.308450927734375,4.2975921630859375,10.146626472473145,-2.9065608978271484
1728893483929430300,12.31843017578125,3.912125587463379,9.47146224975586,-2.6862943172454834
1728893483939439900,12.32843994140625,3.9839515686035156,9.607931137084961,-2.7700912952423096
1728893483949449700,12.33844970703125,4.07014274597168,9.5624418258667,-2.7246015071868896
1728893483959459600,12.34845947265625,2.801215887069702,9.6989107131958,-3.026270866394043
1728893483969469200,12.35846923828125,4.49870491027832,9.615114212036133,-2.6384103298187256
1728893483979479000,12.36847900390625,4.355052947998047,10.201693534851074,-2.609679937362671
1728893483989458200,12.378458251953125,4.352658748626709,10.81700325012207,-2.7246015071868896
1728893483999437600,12.3884375,4.967968463897705,11.48259162902832,-2.6791117191314697
1728893484009416700,12.398416748046875,5.238513469696045,11.520898818969727,-2.80361008644104
1728893484019396000,12.40839599609375,5.458779811859131,11.801020622253418,-2.9448680877685547
1728893484029405700,12.41840576171875,5.473145008087158,11.832144737243652,-3.1699230670928955
1728893484039354600,12.428354736328124,5.315127849578857,11.851298332214355,-3.2824504375457764
1728893484049364200,12.4383642578125,4.7189717292785645,11.738770484924316,-3.184288263320923
1728893484059374000,12.4483740234375,3.9169139862060547,11.444284439086914,-2.8419175148010254
1728893484069383700,12.4583837890625,3.4572272300720215,11.130643844604492,-2.5019407272338867
1728893484079363000,12.468363037109375,3.7181951999664307,10.790667533874512,-2.33913516998291
1728893484089342200,12.47834228515625,4.278438568115234,10.618284225463867,-2.296039342880249
1728893484099321600,12.488321533203125,4.302380561828613,10.448296546936035,-2.164358377456665
1728893484109331200,12.498331298828125,4.003105163574219,10.371682167053223,-2.140416383743286
1728893484119310600,12.508310546875,3.861847400665283,10.319009780883789,-2.1499931812286377
1728893484129320200,12.5183203125,3.8594532012939453,10.160991668701172,-2.1499931812286377
1728893484139330000,12.528330078125,3.9240965843200684,10.005369186401367,-2.188300371170044
1728893484149309400,12.538309326171875,4.086902141571045,9.971850395202637,-2.1523873805999756
1728893484159288600,12.54828857421875,4.175487995147705,9.876082420349121,-2.094926595687866
1728893484169298400,12.55829833984375,4.07014274597168,9.41400146484375,-2.008735179901123
1728893484179277600,12.568277587890625,3.998316764831543,9.165003776550293,-1.8052281141281128
1728893484189287400,12.578287353515625,3.7924153804779053,9.327810287475586,-1.7381904125213623
1728893484199266600,12.5882666015625,3.778050184249878,9.346963882446289,-1.7860745191574097
1728893484209276400,12.5982763671875,3.9456443786621094,9.138668060302734,-1.7717092037200928
1728893484219286000,12.6082861328125,4.034229755401611,9.373299598693848,-1.7405846118927002
1728893484229265400,12.618265380859375,4.05817174911499,9.763554573059082,-1.7310078144073486
1728893484239214000,12.628214111328125,4.0294413566589355,9.86889934539795,-1.7717092037200928
1728893484249224000,12.638223876953125,4.101267337799072,9.742006301879883,-1.6663644313812256
1728893484259233500,12.648233642578125,4.24970817565918,9.895236015319824,-1.6639702320098877
1728893484269243400,12.658243408203125,4.094084739685059,9.880870819091797,-1.5825673341751099
1728893484279253200,12.668253173828125,3.892971992492676,9.734824180603027,-1.434126853942871
1728893484289232400,12.678232421875,3.7924153804779053,9.617507934570312,-1.3048399686813354
1728893484299211800,12.688211669921875,3.7924153804779053,9.521739959716797,-1.259350061416626
1728893484309221400,12.698221435546875,3.7900211811065674,9.385271072387695,-1.1899182796478271
1728893484319200800,12.70820068359375,3.751713991165161,9.378087997436523,-1.1827356815338135
1728893484329210400,12.71821044921875,3.663128614425659,9.457097053527832,-1.1444283723831177
1728893484339250700,12.728250732421875,3.732560396194458,9.545681953430176,-1.1348515748977661
1728893484349230000,12.73822998046875,3.9001545906066895,9.646238327026367,-1.137245774269104
1728893484359239700,12.74823974609375,4.05817174911499,9.787496566772461,-1.0606313943862915
1728893484369249500,12.75824951171875,4.153939723968506,9.8784761428833,-1.039083480834961
1728893484379228700,12.768228759765625,4.242525577545166,10.000580787658691,-1.0247182846069336
1728893484389238500,12.778238525390625,4.364629745483398,10.189722061157227,-0.9959878921508789
1728893484399217700,12.7882177734375,4.405331134796143,10.244789123535156,-0.9744400978088379
1728893484409227500,12.7982275390625,4.5154643058776855,10.345345497131348,-0.9433154463768005
1728893484419237400,12.8082373046875,4.522646903991699,10.407594680786133,-0.9193734526634216
1728893484429247000,12.8182470703125,4.6471452713012695,10.491392135620117,-0.8738836050033569
1728893484439256800,12.8282568359375,4.707000732421875,10.481815338134766,-0.8355764150619507
1728893484449236000,12.838236083984375,4.692635536193848,10.42195987701416,-0.7637503147125244
1728893484459215400,12.84821533203125,4.596867084503174,10.280701637268066,-0.6919242739677429
1728893484469194500,12.858194580078125,4.548983097076416,10.103530883789062,-0.6153098344802856
1728893484479174000,12.868173828125,4.525041103363037,9.947908401489258,-0.5817909836769104
1728893484489183500,12.87818359375,4.484339714050293,9.818621635437012,-0.586579442024231
1728893484499163000,12.888162841796875,4.455609321594238,9.672574996948242,-0.5841852426528931
1728893484509172700,12.8981728515625,4.434061527252197,9.57201862335205,-0.5410895943641663
1728893484519151900,12.90815185546875,4.426878929138184,9.50498104095459,-0.5434837937355042
1728893484529161700,12.91816162109375,4.460397720336914,9.548076629638672,-0.5841852426528931
1728893484539171300,12.92817138671875,4.55616569519043,9.641449928283691,-0.6057330369949341
1728893484549181200,12.93818115234375,4.666299343109131,9.555258750915527,-0.6799532771110535
1728893484559160300,12.948160400390625,4.668693542480469,9.3828763961792,-0.6823474764823914
1728893484569170200,12.958170166015625,4.592078685760498,9.253589630126953,-0.6751648783683777
1728893484579118800,12.968118896484375,4.6040496826171875,9.255983352661133,-0.689530074596405
1728893484589128700,12.978128662109375,4.76924991607666,9.334992408752441,-0.9241618514060974
1728893484599138600,12.988138671875,4.72376012802124,9.244012832641602,-0.7254431247711182
1728893484609117700,12.99811767578125,4.551377296447754,9.172186851501465,-0.8092401623725891
1728893484619096800,13.008096923828125,4.299986362457275,9.023746490478516,-0.8212111592292786
1728893484629106700,13.018106689453125,4.2329487800598145,8.860940933227539,-0.8427590131759644
1728893484639085800,13.0280859375,4.331110954284668,8.827422142028809,-0.8403648138046265
1728893484649065200,13.038065185546875,4.211400985717773,8.762778282165527,-0.9074024558067322
1728893484659075000,13.048074951171875,4.280832767486572,8.719682693481445,-0.9792284965515137
1728893484669084700,13.058084716796875,4.268861770629883,8.59997272491455,-0.9864110946655273
