time,seconds_elapsed,z,y,x
1728845396110778000,0.144778076171875,1.3239935636520386,9.758766174316406,0.035913024097681046
1728845396120757200,0.15475732421875,1.2880805730819702,9.734824180603027,0.06464344263076782
1728845396130736600,0.164736572265625,1.2952631711959839,9.734824180603027,0.06703764945268631
1728845396140715800,0.1747158203125,1.3335703611373901,9.715670585632324,0.07182604819536209
1728845396150695200,0.184695068359375,1.3646949529647827,9.727641105651855,0.07661445438861847
1728845396160674300,0.19467431640625,1.403002142906189,9.737217903137207,0.05985504388809204
1728845396170653400,0.2046533203125,1.4245500564575195,9.746794700622559,0.0454898327589035
1728845396180632800,0.2146328125,1.4293384552001953,9.749189376831055,0.031124621629714966
1728845396190612000,0.224612060546875,1.4053963422775269,9.751583099365234,0.026336219161748886
1728845396200591400,0.23459130859375,1.3527239561080933,9.763554573059082,0.021547814831137657
1728845396210570500,0.244570556640625,1.316810965538025,9.751583099365234,0.035913024097681046
1728845396220580400,0.254580322265625,1.2856862545013428,9.739612579345703,0.05267243832349777
1728845396230590000,0.26458984375,1.2856862545013428,9.725247383117676,0.06224924325942993
1728845396240569300,0.2745693359375,1.2880805730819702,9.727641105651855,0.06703764945268631
1728845396250579200,0.2845791015625,1.3287819623947144,9.727641105651855,0.07900865375995636
1728845396260588800,0.2945888671875,1.3742717504501343,9.727641105651855,0.07422025501728058
1728845396270568200,0.304568115234375,1.4437036514282227,9.734824180603027,0.043095629662275314
1728845396280547300,0.31454736328125,1.4269442558288574,9.744400978088379,0.035913024097681046
1728845396290526700,0.324526611328125,1.3862427473068237,9.751583099365234,0.021547814831137657
1728845396300505900,0.334505859375,1.357512354850769,9.758766174316406,0.023942016065120697
1728845396310485000,0.344485107421875,1.314416766166687,9.746794700622559,0.035913024097681046
1728845396320464400,0.35446435546875,1.2856862545013428,9.737217903137207,0.05746084079146385
1728845396330443500,0.364443603515625,1.2856862545013428,9.732429504394531,0.06464344263076782
1728845396340423000,0.3744228515625,1.3024457693099976,9.72285270690918,0.07422025501728058
1728845396350402000,0.384402099609375,1.3479355573654175,9.72285270690918,0.08140286058187485
1728845396360381400,0.39438134765625,1.37906014919281,9.727641105651855,0.08140286058187485
1728845396370360600,0.404360595703125,1.41257905960083,9.746794700622559,0.05746084079146385
1728845396380370400,0.414370361328125,1.436521053314209,9.730035781860352,0.05027823522686958
1728845396390319000,0.424319091796875,1.4173674583435059,9.732429504394531,0.038307227194309235
1728845396400329000,0.434328857421875,1.3934253454208374,9.749189376831055,0.035913024097681046
1728845396410338600,0.444338623046875,1.3431471586227417,9.768342971801758,0.021547814831137657
1728845396420348400,0.454348388671875,1.2832920551300049,9.742006301879883,0.05267243832349777
1728845396430327600,0.46432763671875,1.290474772453308,9.727641105651855,0.06703764945268631
1728845396440307000,0.474306884765625,1.3120225667953491,9.730035781860352,0.06464344263076782
1728845396450286000,0.4842861328125,1.3431471586227417,9.718064308166504,0.06703764945268631
1728845396460296000,0.4942958984375,1.3910311460494995,9.720458984375,0.06703764945268631
1728845396470305500,0.504305419921875,1.4245500564575195,9.734824180603027,0.05027823522686958
1728845396480315400,0.5143154296875,1.4269442558288574,9.749189376831055,0.05267243832349777
1728845396490294800,0.524294677734375,1.4245500564575195,9.75397777557373,0.031124621629714966
1728845396500274000,0.53427392578125,1.3982137441635132,9.751583099365234,0.031124621629714966
1728845396510253000,0.544253173828125,1.357512354850769,9.751583099365234,0.031124621629714966
1728845396520263000,0.554262939453125,1.3263877630233765,9.751583099365234,0.038307227194309235
1728845396530211600,0.564211669921875,1.292868971824646,9.730035781860352,0.05985504388809204
1728845396540221400,0.574221435546875,1.292868971824646,9.739612579345703,0.07422025501728058
1728845396550231300,0.584231201171875,1.3192051649093628,9.734824180603027,0.07422025501728058
1728845396560241000,0.594240966796875,1.3503297567367554,9.734824180603027,0.07661445438861847
1728845396570220300,0.60422021484375,1.3934253454208374,9.720458984375,0.07422025501728058
1728845396580199400,0.614199462890625,1.4389152526855469,9.739612579345703,0.043095629662275314
1728845396590178800,0.6241787109375,1.4101848602294922,9.732429504394531,0.043095629662275314
1728845396600158000,0.634157958984375,1.3958195447921753,9.744400978088379,0.026336219161748886
1728845396610137000,0.64413720703125,1.3527239561080933,9.742006301879883,0.033518824726343155
1728845396620147000,0.65414697265625,1.3215993642807007,9.732429504394531,0.038307227194309235
1728845396630095600,0.664095703125,1.3000515699386597,9.739612579345703,0.0454898327589035
1728845396640105500,0.67410546875,1.2952631711959839,9.727641105651855,0.06464344263076782
1728845396650115300,0.684115234375,1.314416766166687,9.713275909423828,0.07182604819536209
1728845396660125000,0.694125,1.3623007535934448,9.730035781860352,0.07900865375995636
1728845396670104300,0.704104248046875,1.3910311460494995,9.727641105651855,0.06703764945268631
1728845396680083500,0.71408349609375,1.4269442558288574,9.734824180603027,0.05746084079146385
1728845396690062800,0.724062744140625,1.4317326545715332,9.751583099365234,0.0454898327589035
1728845396700042000,0.7340419921875,1.4197616577148438,9.742006301879883,0.038307227194309235
1728845396710021000,0.744021240234375,1.3910311460494995,9.746794700622559,0.023942016065120697
1728845396720031000,0.754031005859375,1.3455413579940796,9.739612579345703,0.023942016065120697
1728845396730040800,0.764040771484375,1.2856862545013428,9.737217903137207,0.05027823522686958
1728845396740020000,0.77402001953125,1.2976573705673218,9.718064308166504,0.07422025501728058
1728845396750029800,0.78402978515625,1.3263877630233765,9.718064308166504,0.07900865375995636
1728845396760009000,0.794009033203125,1.3623007535934448,9.710882186889648,0.08379705995321274
1728845396769988400,0.80398828125,1.3934253454208374,9.734824180603027,0.05506663769483566
1728845396779967500,0.813967529296875,1.4293384552001953,9.742006301879883,0.05746084079146385
1728845396789947000,0.82394677734375,1.4413094520568848,9.758766174316406,0.028730420395731926
1728845396799956500,0.83395654296875,1.4245500564575195,9.75397777557373,0.023942016065120697
1728845396809966300,0.84396630859375,1.3958195447921753,9.746794700622559,0.026336219161748886
1728845396819976000,0.853975830078125,1.3551181554794312,9.734824180603027,0.028730420395731926
1728845396829955300,0.863955322265625,1.3096283674240112,9.734824180603027,0.040701430290937424
1728845396839934500,0.8739345703125,1.2952631711959839,9.725247383117676,0.05267243832349777
1728845396849913900,0.883913818359375,1.3048399686813354,9.730035781860352,0.05985504388809204
1728845396859923500,0.89392333984375,1.3287819623947144,9.730035781860352,0.07900865375995636
1728845396869902800,0.90390283203125,1.3670891523361206,9.72285270690918,0.07661445438861847
1728845396879912700,0.91391259765625,1.400607943534851,9.737217903137207,0.06703764945268631
1728845396889891800,0.923891845703125,1.436521053314209,9.744400978088379,0.0454898327589035
1728845396899871000,0.93387109375,1.41257905960083,9.749189376831055,0.023942016065120697
1728845396909850400,0.943850341796875,1.3838485479354858,9.744400978088379,0.031124621629714966
1728845396919860000,0.95385986328125,1.3431471586227417,9.75397777557373,0.028730420395731926
1728845396929869800,0.963869873046875,1.3120225667953491,9.749189376831055,0.038307227194309235
1728845396939879700,0.973879638671875,1.3000515699386597,9.744400978088379,0.0694318488240242
1728845396949858800,0.98385888671875,1.290474772453308,9.713275909423828,0.07900865375995636
1728845396959838200,0.993838134765625,1.3239935636520386,9.718064308166504,0.08140286058187485
1728845396969847800,1.003847900390625,1.3646949529647827,9.725247383117676,0.07661445438861847
1728845396979827200,1.0138271484375,1.403002142906189,9.737217903137207,0.07182604819536209
1728845396989836800,1.0238369140625,1.4317326545715332,9.746794700622559,0.040701430290937424
1728845396999816200,1.033816162109375,1.4317326545715332,9.751583099365234,0.0454898327589035
1728845397009795300,1.04379541015625,1.41257905960083,9.758766174316406,0.043095629662275314
1728845397019774700,1.053774658203125,1.3862427473068237,9.744400978088379,0.028730420395731926
1728845397029784300,1.063784423828125,1.3335703611373901,9.744400978088379,0.028730420395731926
1728845397039763700,1.073763671875,1.3096283674240112,9.742006301879883,0.043095629662275314
1728845397049773300,1.083773193359375,1.3000515699386597,9.727641105651855,0.05506663769483566
1728845397059752700,1.093752685546875,1.3239935636520386,9.72285270690918,0.08619125932455063
1728845397069731800,1.10373193359375,1.3718775510787964,9.720458984375,0.07661445438861847
1728845397079741700,1.11374169921875,1.4269442558288574,9.718064308166504,0.06703764945268631
1728845397089751600,1.12375146484375,1.4317326545715332,9.744400978088379,0.05027823522686958
1728845397099761200,1.13376123046875,1.4317326545715332,9.744400978088379,0.031124621629714966
1728845397109740500,1.143740478515625,1.403002142906189,9.75637149810791,0.033518824726343155
1728845397119719700,1.1537197265625,1.37906014919281,9.751583099365234,0.021547814831137657
1728845397129699000,1.163698974609375,1.3287819623947144,9.744400978088379,0.028730420395731926
1728845397139708700,1.173708740234375,1.290474772453308,9.749189376831055,0.0454898327589035
1728845397149688000,1.18368798828125,1.2952631711959839,9.732429504394531,0.05985504388809204
1728845397159667200,1.193667236328125,1.3024457693099976,9.718064308166504,0.07182604819536209
1728845397169677000,1.203677001953125,1.335964560508728,9.720458984375,0.07900865375995636
1728845397179656200,1.21365625,1.3910311460494995,9.725247383117676,0.07661445438861847
1728845397189635600,1.223635498046875,1.4173674583435059,9.734824180603027,0.06224924325942993
1728845397199614700,1.23361474609375,1.434126853942871,9.734824180603027,0.0454898327589035
1728845397209593900,1.24359375,1.4197616577148438,9.761159896850586,0.019153613597154617
1728845397219603700,1.253603759765625,1.3766659498214722,9.75637149810791,0.026336219161748886
1728845397229613600,1.263613525390625,1.338358759880066,9.75397777557373,0.021547814831137657
1728845397239592700,1.2735927734375,1.3024457693099976,9.742006301879883,0.05746084079146385
1728845397249602600,1.2836025390625,1.3048399686813354,9.734824180603027,0.05746084079146385
1728845397259581700,1.293581787109375,1.3072341680526733,9.72285270690918,0.0694318488240242
1728845397269561000,1.30356103515625,1.338358759880066,9.727641105651855,0.07422025501728058
1728845397279540200,1.313540283203125,1.3718775510787964,9.734824180603027,0.0694318488240242
1728845397289519600,1.32351953125,1.4293384552001953,9.734824180603027,0.05746084079146385
1728845397299529200,1.333529296875,1.436521053314209,9.737217903137207,0.05267243832349777
1728845397309508600,1.343508544921875,1.434126853942871,9.742006301879883,0.033518824726343155
1728845397319518200,1.353518310546875,1.41257905960083,9.744400978088379,0.028730420395731926
1728845397329528000,1.363528076171875,1.3646949529647827,9.746794700622559,0.031124621629714966
1728845397339538000,1.373537841796875,1.3239935636520386,9.744400978088379,0.038307227194309235
1728845397349517000,1.38351708984375,1.3024457693099976,9.744400978088379,0.05267243832349777
1728845397359496400,1.393496337890625,1.3072341680526733,9.718064308166504,0.06464344263076782
1728845397369475600,1.4034755859375,1.3096283674240112,9.720458984375,0.07900865375995636
1728845397379454700,1.413454833984375,1.3910311460494995,9.727641105651855,0.06703764945268631
1728845397389434000,1.42343408203125,1.4317326545715332,9.734824180603027,0.06464344263076782
1728845397399443700,1.433443603515625,1.4484920501708984,9.751583099365234,0.043095629662275314
1728845397409423000,1.443423095703125,1.4221558570861816,9.768342971801758,0.031124621629714966
1728845397419433000,1.453432861328125,1.414973258972168,9.768342971801758,0.031124621629714966
1728845397429442600,1.463442626953125,1.3646949529647827,9.758766174316406,0.035913024097681046
1728845397439422000,1.473421875,1.3192051649093628,9.739612579345703,0.026336219161748886
1728845397449431600,1.483431640625,1.2952631711959839,9.734824180603027,0.047884032130241394
1728845397459411000,1.493410888671875,1.290474772453308,9.734824180603027,0.06464344263076782
1728845397469390000,1.50339013671875,1.316810965538025,9.732429504394531,0.07422025501728058
1728845397479369500,1.513369384765625,1.3479355573654175,9.727641105651855,0.08140286058187485
1728845397489348600,1.5233486328125,1.3886369466781616,9.732429504394531,0.06703764945268631
1728845397499358500,1.5333583984375,1.4197616577148438,9.732429504394531,0.05985504388809204
1728845397509307100,1.54330712890625,1.4437036514282227,9.739612579345703,0.05027823522686958
1728845397519317000,1.55331689453125,1.4245500564575195,9.75397777557373,0.031124621629714966
1728845397529326600,1.56332666015625,1.3646949529647827,9.744400978088379,0.035913024097681046
1728845397539336400,1.57333642578125,1.3287819623947144,9.749189376831055,0.035913024097681046
1728845397549315600,1.583315673828125,1.2952631711959839,9.749189376831055,0.05746084079146385
1728845397559295000,1.593294921875,1.3000515699386597,9.742006301879883,0.06703764945268631
1728845397569274000,1.603274169921875,1.3120225667953491,9.72285270690918,0.06464344263076782
1728845397579284000,1.613283935546875,1.3455413579940796,9.737217903137207,0.07900865375995636
1728845397589232600,1.623232666015625,1.3934253454208374,9.727641105651855,0.07422025501728058
1728845397599242500,1.633242431640625,1.4269442558288574,9.734824180603027,0.05746084079146385
1728845397609252000,1.643252197265625,1.4389152526855469,9.742006301879883,0.05506663769483566
1728845397619262000,1.653261962890625,1.4484920501708984,9.742006301879883,0.028730420395731926
1728845397629241000,1.663240966796875,1.4077905416488647,9.739612579345703,0.043095629662275314
1728845397639220500,1.673220458984375,1.3551181554794312,9.737217903137207,0.031124621629714966
1728845397649199600,1.68319970703125,1.3239935636520386,9.746794700622559,0.040701430290937424
1728845397659179000,1.693178955078125,1.2976573705673218,9.751583099365234,0.05267243832349777
1728845397669158100,1.703158203125,1.3072341680526733,9.718064308166504,0.07182604819536209
1728845397679168000,1.71316796875,1.290474772453308,9.710882186889648,0.05985504388809204
1728845397689147100,1.723147216796875,1.3934253454208374,9.725247383117676,0.07182604819536209
1728845397699126500,1.73312646484375,1.4269442558288574,9.744400978088379,0.05506663769483566
1728845397709136100,1.74313623046875,1.4317326545715332,9.746794700622559,0.043095629662275314
1728845397719146000,1.75314599609375,1.434126853942871,9.749189376831055,0.031124621629714966
1728845397729125000,1.763125,1.3910311460494995,9.751583099365234,0.026336219161748886
1728845397739104500,1.7731044921875,1.3551181554794312,9.749189376831055,0.028730420395731926
1728845397749083600,1.783083740234375,1.3192051649093628,9.742006301879883,0.043095629662275314
1728845397759093500,1.793093505859375,1.2856862545013428,9.75637149810791,0.05027823522686958
1728845397769103400,1.803103271484375,1.3000515699386597,9.734824180603027,0.0694318488240242
1728845397779082500,1.81308251953125,1.3239935636520386,9.715670585632324,0.06703764945268631
1728845397789092400,1.82309228515625,1.3670891523361206,9.710882186889648,0.07182604819536209
1728845397799071500,1.833071533203125,1.3958195447921753,9.718064308166504,0.06464344263076782
1728845397809051000,1.84305078125,1.434126853942871,9.744400978088379,0.05985504388809204
1728845397819030000,1.853030029296875,1.434126853942871,9.763554573059082,0.0454898327589035
1728845397829009200,1.863009033203125,1.4245500564575195,9.765948295593262,0.028730420395731926
1728845397839019000,1.87301904296875,1.403002142906189,9.732429504394531,0.028730420395731926
1728845397848998400,1.882998291015625,1.314416766166687,9.720458984375,0.035913024097681046
1728845397859008000,1.893008056640625,1.2952631711959839,9.710882186889648,0.06464344263076782
1728845397869017900,1.903017822265625,1.3024457693099976,9.734824180603027,0.06703764945268631
1728845397878997000,1.9129970703125,1.3192051649093628,9.737217903137207,0.0694318488240242
1728845397889006800,1.9230068359375,1.3694833517074585,9.732429504394531,0.08140286058187485
1728845397899016700,1.9330166015625,1.400607943534851,9.72285270690918,0.06224924325942993
1728845397908995800,1.942995849609375,1.4389152526855469,9.725247383117676,0.05027823522686958
1728845397918975000,1.95297509765625,1.4460978507995605,9.734824180603027,0.035913024097681046
1728845397928954400,1.962954345703125,1.4317326545715332,9.742006301879883,0.038307227194309235
1728845397938933500,1.97293359375,1.3958195447921753,9.75637149810791,0.026336219161748886
1728845397948913000,1.982912841796875,1.3527239561080933,9.75637149810791,0.033518824726343155
1728845397958922500,1.992922607421875,1.316810965538025,9.742006301879883,0.05027823522686958
1728845397968932400,2.002932373046875,1.2976573705673218,9.727641105651855,0.05985504388809204
1728845397978911500,2.012911376953125,1.3048399686813354,9.713275909423828,0.07661445438861847
1728845397988921300,2.02292138671875,1.3287819623947144,9.730035781860352,0.06703764945268631
1728845397998931200,2.03293115234375,1.37906014919281,9.737217903137207,0.07182604819536209
1728845398008910300,2.042910400390625,1.403002142906189,9.742006301879883,0.05746084079146385
1728845398018889700,2.0528896484375,1.4437036514282227,9.75397777557373,0.033518824726343155
1728845398028868900,2.062868896484375,1.4221558570861816,9.75637149810791,0.026336219161748886
1728845398038878700,2.072878662109375,1.3766659498214722,9.749189376831055,0.0454898327589035
1728845398048857900,2.08285791015625,1.3551181554794312,9.751583099365234,0.035913024097681046
1728845398058867700,2.09286767578125,1.316810965538025,9.75397777557373,0.0454898327589035
1728845398068877300,2.102877197265625,1.3048399686813354,9.734824180603027,0.05267243832349777
1728845398078887200,2.11288720703125,1.3072341680526733,9.72285270690918,0.06703764945268631
1728845398088866600,2.122866455078125,1.338358759880066,9.72285270690918,0.07182604819536209
1728845398098845700,2.132845703125,1.3670891523361206,9.732429504394531,0.08379705995321274
1728845398108824800,2.142824951171875,1.403002142906189,9.742006301879883,0.07661445438861847
1728845398118804200,2.15280419921875,1.434126853942871,9.742006301879883,0.0454898327589035
1728845398128783400,2.162783447265625,1.4437036514282227,9.75637149810791,0.043095629662275314
1728845398138793200,2.172793212890625,1.436521053314209,9.746794700622559,0.023942016065120697
1728845398148772400,2.1827724609375,1.37906014919281,9.746794700622559,0.035913024097681046
1728845398158782200,2.1927822265625,1.3407529592514038,9.742006301879883,0.038307227194309235
1728845398168792000,2.2027919921875,1.3239935636520386,9.737217903137207,0.05027823522686958
1728845398178771200,2.212771240234375,1.3072341680526733,9.737217903137207,0.07182604819536209
1728845398188781000,2.222781005859375,1.3407529592514038,9.720458984375,0.07900865375995636
1728845398198760200,2.23276025390625,1.381454348564148,9.727641105651855,0.07900865375995636
1728845398208739600,2.242739501953125,1.41257905960083,9.730035781860352,0.05985504388809204
1728845398218718700,2.25271875,1.4484920501708984,9.742006301879883,0.05746084079146385
1728845398228698000,2.262697998046875,1.434126853942871,9.758766174316406,0.038307227194309235
1728845398238707700,2.272707763671875,1.4197616577148438,9.768342971801758,0.033518824726343155
1728845398248656400,2.282656494140625,1.3742717504501343,9.751583099365234,0.023942016065120697
1728845398258666200,2.292666259765625,1.3311761617660522,9.739612579345703,0.023942016065120697
1728845398268676000,2.302676025390625,1.2976573705673218,9.734824180603027,0.05267243832349777
1728845398278655200,2.3126552734375,1.2976573705673218,9.727641105651855,0.05746084079146385
1728845398288665000,2.3226650390625,1.3120225667953491,9.732429504394531,0.07900865375995636
1728845398298674700,2.3326748046875,1.3551181554794312,9.727641105651855,0.07422025501728058
1728845398308654000,2.342654052734375,1.3766659498214722,9.727641105651855,0.07422025501728058
1728845398318633200,2.35263330078125,1.4173674583435059,9.730035781860352,0.05267243832349777
1728845398328612600,2.362612548828125,1.434126853942871,9.744400978088379,0.033518824726343155
1728845398338591700,2.372591796875,1.4173674583435059,9.749189376831055,0.035913024097681046
1728845398348571100,2.382571044921875,1.3766659498214722,9.749189376831055,0.019153613597154617
1728845398358580700,2.392580810546875,1.3431471586227417,9.732429504394531,0.038307227194309235
1728845398368560000,2.40256005859375,1.3000515699386597,9.749189376831055,0.05506663769483566
1728845398378569700,2.41256982421875,1.292868971824646,9.744400978088379,0.06703764945268631
1728845398388518700,2.4225185546875,1.314416766166687,9.725247383117676,0.07422025501728058
1728845398398528300,2.4325283203125,1.3407529592514038,9.718064308166504,0.07900865375995636
1728845398408538000,2.4425380859375,1.37906014919281,9.72285270690918,0.07182604819536209
1728845398418517200,2.452517333984375,1.4269442558288574,9.737217903137207,0.06703764945268631
1728845398428527000,2.462527099609375,1.4317326545715332,9.744400978088379,0.043095629662275314
1728845398438537000,2.472536865234375,1.4532804489135742,9.75397777557373,0.035913024097681046
1728845398448516000,2.48251611328125,1.414973258972168,9.751583099365234,0.019153613597154617
1728845398458495200,2.4924951171875,1.3646949529647827,9.75397777557373,0.011971008032560349
1728845398468474600,2.502474609375,1.3335703611373901,9.734824180603027,0.035913024097681046
1728845398478484500,2.512484375,1.3024457693099976,9.732429504394531,0.047884032130241394
1728845398488463600,2.522463623046875,1.314416766166687,9.734824180603027,0.07422025501728058
1728845398498473500,2.532473388671875,1.3503297567367554,9.734824180603027,0.07182604819536209
1728845398508483000,2.542483154296875,1.3862427473068237,9.727641105651855,0.07182604819536209
1728845398518493000,2.552492919921875,1.4197616577148438,9.727641105651855,0.05985504388809204
1728845398528472000,2.56247216796875,1.4532804489135742,9.734824180603027,0.0454898327589035
1728845398538451500,2.572451416015625,1.4245500564575195,9.742006301879883,0.028730420395731926
1728845398548430600,2.5824306640625,1.3982137441635132,9.758766174316406,0.023942016065120697
1728845398558440400,2.5924404296875,1.3718775510787964,9.768342971801758,0.021547814831137657
1728845398568450300,2.6024501953125,1.3431471586227417,9.742006301879883,0.043095629662275314
1728845398578429400,2.612429443359375,1.3024457693099976,9.742006301879883,0.05746084079146385
1728845398588439300,2.622439208984375,1.2976573705673218,9.727641105651855,0.05506663769483566
1728845398598449000,2.632448974609375,1.314416766166687,9.727641105651855,0.06703764945268631
1728845398608428300,2.64242822265625,1.3551181554794312,9.727641105651855,0.08379705995321274
1728845398618407400,2.652407470703125,1.3958195447921753,9.734824180603027,0.06224924325942993
1728845398628386800,2.66238671875,1.4245500564575195,9.737217903137207,0.05985504388809204
1728845398638396400,2.672396484375,1.4389152526855469,9.742006301879883,0.035913024097681046
1728845398648375800,2.682375732421875,1.4317326545715332,9.763554573059082,0.028730420395731926
1728845398658355000,2.69235498046875,1.3742717504501343,9.75637149810791,0.035913024097681046
1728845398668364800,2.70236474609375,1.3335703611373901,9.742006301879883,0.028730420395731926
1728845398678344000,2.712343994140625,1.3024457693099976,9.737217903137207,0.05027823522686958
1728845398688323300,2.7223232421875,1.290474772453308,9.720458984375,0.07182604819536209
1728845398698302500,2.732302490234375,1.316810965538025,9.72285270690918,0.08140286058187485
1728845398708281600,2.742281494140625,1.3479355573654175,9.727641105651855,0.07422025501728058
1728845398718291500,2.75229150390625,1.3910311460494995,9.737217903137207,0.06224924325942993
1728845398728301300,2.76230126953125,1.4269442558288574,9.744400978088379,0.06703764945268631
1728845398738311000,2.772310791015625,1.4508862495422363,9.744400978088379,0.043095629662275314
1728845398748290300,2.782290283203125,1.4269442558288574,9.75397777557373,0.038307227194309235
1728845398758269400,2.79226953125,1.403002142906189,9.751583099365234,0.023942016065120697
1728845398768248800,2.802248779296875,1.3623007535934448,9.749189376831055,0.035913024097681046
1728845398778258400,2.812258544921875,1.3215993642807007,9.744400978088379,0.035913024097681046
1728845398788237800,2.82223779296875,1.292868971824646,9.742006301879883,0.05267243832349777
1728845398798247400,2.832247314453125,1.3096283674240112,9.725247383117676,0.06703764945268631
1728845398808257300,2.84225732421875,1.3287819623947144,9.715670585632324,0.07182604819536209
1728845398818267100,2.85226708984375,1.359906554222107,9.725247383117676,0.07422025501728058
1728845398828246300,2.862246337890625,1.4293384552001953,9.737217903137207,0.06464344263076782
1728845398838225700,2.8722255859375,1.4293384552001953,9.737217903137207,0.043095629662275314
1728845398848204800,2.882204833984375,1.4221558570861816,9.746794700622559,0.043095629662275314
1728845398858184200,2.89218408203125,1.403002142906189,9.749189376831055,0.023942016065120697
1728845398868163300,2.902163330078125,1.3623007535934448,9.75637149810791,0.033518824726343155
1728845398878173200,2.912173095703125,1.3311761617660522,9.739612579345703,0.040701430290937424
1728845398888182800,2.922182861328125,1.2976573705673218,9.734824180603027,0.047884032130241394
1728845398898162200,2.932162109375,1.2976573705673218,9.734824180603027,0.07661445438861847
1728845398908171800,2.942171875,1.3239935636520386,9.718064308166504,0.08379705995321274
1728845398918151200,2.952151123046875,1.3670891523361206,9.734824180603027,0.07661445438861847
1728845398928130300,2.96213037109375,1.4053963422775269,9.72285270690918,0.06703764945268631
1728845398938109700,2.972109619140625,1.4221558570861816,9.746794700622559,0.047884032130241394
1728845398948088800,2.9820888671875,1.4317326545715332,9.749189376831055,0.05506663769483566
1728845398958068200,2.992068115234375,1.4221558570861816,9.758766174316406,0.028730420395731926
1728845398968047400,3.00204736328125,1.3694833517074585,9.737217903137207,0.031124621629714966
1728845398978057200,3.01205712890625,1.3215993642807007,9.742006301879883,0.043095629662275314
1728845398988006000,3.022005859375,1.2976573705673218,9.730035781860352,0.05746084079146385
1728845398998015500,3.032015380859375,1.3096283674240112,9.727641105651855,0.07182604819536209
1728845399008025300,3.042025390625,1.314416766166687,9.725247383117676,0.07422025501728058
1728845399018035200,3.05203515625,1.3551181554794312,9.72285270690918,0.08140286058187485
1728845399028014300,3.062014404296875,1.4053963422775269,9.734824180603027,0.06224924325942993
1728845399037993700,3.07199365234375,1.4389152526855469,9.746794700622559,0.05267243832349777
1728845399047972900,3.081972900390625,1.4532804489135742,9.744400978088379,0.038307227194309235
1728845399057982700,3.091982666015625,1.4221558570861816,9.749189376831055,0.031124621629714966
1728845399067992300,3.101992431640625,1.3838485479354858,9.749189376831055,0.021547814831137657
1728845399077971700,3.1119716796875,1.3623007535934448,9.744400978088379,0.038307227194309235
1728845399087981300,3.121981201171875,1.3311761617660522,9.744400978088379,0.05027823522686958
1728845399097991200,3.1319912109375,1.3048399686813354,9.737217903137207,0.07182604819536209
1728845399107970600,3.141970458984375,1.3024457693099976,9.732429504394531,0.06703764945268631
1728845399117949700,3.15194970703125,1.335964560508728,9.727641105651855,0.06703764945268631
1728845399127928800,3.1619287109375,1.357512354850769,9.720458984375,0.07661445438861847
1728845399137938700,3.171938720703125,1.4389152526855469,9.742006301879883,0.043095629662275314
1728845399147918000,3.18191796875,1.4389152526855469,9.744400978088379,0.038307227194309235
1728845399157897200,3.191897216796875,1.41257905960083,9.751583099365234,0.031124621629714966
1728845399167907000,3.201906982421875,1.3910311460494995,9.749189376831055,0.031124621629714966
1728845399177916700,3.211916748046875,1.357512354850769,9.744400978088379,0.038307227194309235
1728845399187896000,3.22189599609375,1.3096283674240112,9.727641105651855,0.0454898327589035
1728845399197875200,3.231875244140625,1.2952631711959839,9.727641105651855,0.06464344263076782
1728845399207854600,3.2418544921875,1.3000515699386597,9.720458984375,0.0694318488240242
1728845399217864200,3.2518642578125,1.3455413579940796,9.725247383117676,0.08140286058187485
1728845399227812900,3.261812744140625,1.3742717504501343,9.734824180603027,0.07422025501728058
1728845399237822700,3.27182275390625,1.41257905960083,9.718064308166504,0.06224924325942993
1728845399247832600,3.28183251953125,1.4460978507995605,9.732429504394531,0.040701430290937424
1728845399257811700,3.291811767578125,1.4413094520568848,9.749189376831055,0.038307227194309235
1728845399267821600,3.301821533203125,1.414973258972168,9.751583099365234,0.028730420395731926
1728845399277831200,3.3118310546875,1.3886369466781616,9.75397777557373,0.021547814831137657
1728845399287810600,3.321810546875,1.3527239561080933,9.751583099365234,0.028730420395731926
1728845399297789700,3.331789794921875,1.3096283674240112,9.72285270690918,0.0694318488240242
1728845399307769000,3.34176904296875,1.3072341680526733,9.713275909423828,0.07182604819536209
1728845399317748200,3.351748291015625,1.3431471586227417,9.710882186889648,0.07900865375995636
1728845399327727600,3.3617275390625,1.381454348564148,9.734824180603027,0.07182604819536209
1728845399337737200,3.3717373046875,1.4173674583435059,9.734824180603027,0.0694318488240242
1728845399347686100,3.38168603515625,1.4413094520568848,9.742006301879883,0.035913024097681046
1728845399357695700,3.39169580078125,1.436521053314209,9.744400978088379,0.033518824726343155
1728845399367705600,3.40170556640625,1.414973258972168,9.75397777557373,0.031124621629714966
1728845399377715200,3.411715087890625,1.37906014919281,9.744400978088379,0.033518824726343155
1728845399387694600,3.421694580078125,1.3455413579940796,9.739612579345703,0.040701430290937424
1728845399397673700,3.431673828125,1.314416766166687,9.742006301879883,0.05267243832349777
1728845399407653000,3.441653076171875,1.3000515699386597,9.737217903137207,0.05985504388809204
1728845399417632300,3.45163232421875,1.3120225667953491,9.72285270690918,0.07900865375995636
1728845399427611600,3.461611572265625,1.3455413579940796,9.72285270690918,0.07900865375995636
1728845399437621200,3.471621337890625,1.37906014919281,9.730035781860352,0.07661445438861847
1728845399447600600,3.4816005859375,1.4508862495422363,9.734824180603027,0.05267243832349777
1728845399457610200,3.4916103515625,1.4484920501708984,9.744400978088379,0.040701430290937424
1728845399467620000,3.5016201171875,1.4101848602294922,9.751583099365234,0.021547814831137657
1728845399477630000,3.5116298828125,1.357512354850769,9.75397777557373,0.028730420395731926
1728845399487609000,3.521609130859375,1.3407529592514038,9.744400978088379,0.028730420395731926
1728845399497588500,3.53158837890625,1.3048399686813354,9.730035781860352,0.05267243832349777
1728845399507567600,3.541567626953125,1.292868971824646,9.727641105651855,0.06703764945268631
1728845399517546800,3.551546630859375,1.314416766166687,9.725247383117676,0.07422025501728058
1728845399527526100,3.561526123046875,1.3479355573654175,9.725247383117676,0.08379705995321274
1728845399537536000,3.571535888671875,1.3766659498214722,9.730035781860352,0.07422025501728058
1728845399547484700,3.581484619140625,1.4245500564575195,9.732429504394531,0.05746084079146385
1728845399557494300,3.591494384765625,1.436521053314209,9.737217903137207,0.047884032130241394
1728845399567504100,3.601504150390625,1.4460978507995605,9.749189376831055,0.028730420395731926
1728845399577514000,3.611513916015625,1.414973258972168,9.758766174316406,0.023942016065120697
1728845399587493000,3.6214931640625,1.381454348564148,9.744400978088379,0.014365210197865963
1728845399597472500,3.631472412109375,1.3263877630233765,9.744400978088379,0.035913024097681046
1728845399607451600,3.64145166015625,1.3000515699386597,9.72285270690918,0.0694318488240242
1728845399617430800,3.6514306640625,1.3120225667953491,9.715670585632324,0.07661445438861847
1728845399627410200,3.66141015625,1.357512354850769,9.725247383117676,0.07900865375995636
1728845399637420000,3.671419921875,1.381454348564148,9.732429504394531,0.07182604819536209
1728845399647429600,3.6814296875,1.4293384552001953,9.742006301879883,0.05746084079146385
1728845399657439500,3.691439453125,1.4508862495422363,9.739612579345703,0.043095629662275314
1728845399667418600,3.701418701171875,1.436521053314209,9.75637149810791,0.038307227194309235
1728845399677398000,3.71139794921875,1.41257905960083,9.746794700622559,0.021547814831137657
1728845399687377200,3.721377197265625,1.3694833517074585,9.751583099365234,0.026336219161748886
1728845399697387000,3.731386962890625,1.3335703611373901,9.749189376831055,0.035913024097681046
1728845399707396600,3.741396728515625,1.2952631711959839,9.734824180603027,0.047884032130241394
1728845399717406500,3.751406494140625,1.2952631711959839,9.732429504394531,0.05985504388809204
1728845399727385600,3.761385498046875,1.316810965538025,9.72285270690918,0.08379705995321274
1728845399737395500,3.7713955078125,1.3551181554794312,9.715670585632324,0.07900865375995636
1728845399747374800,3.781374755859375,1.3886369466781616,9.734824180603027,0.07422025501728058
1728845399757384400,3.791384521484375,1.4293384552001953,9.742006301879883,0.05506663769483566
1728845399767363800,3.80136376953125,1.4484920501708984,9.749189376831055,0.043095629662275314
1728845399777343000,3.811343017578125,1.3982137441635132,9.75637149810791,0.023942016065120697
1728845399787322400,3.821322265625,1.3623007535934448,9.744400978088379,0.031124621629714966
1728845399797332000,3.83133203125,1.3287819623947144,9.742006301879883,0.035913024097681046
1728845399807341800,3.841341796875,1.2952631711959839,9.746794700622559,0.06224924325942993
1728845399817351400,3.851351318359375,1.3096283674240112,9.744400978088379,0.07422025501728058
1728845399827330800,3.861330810546875,1.3263877630233765,9.730035781860352,0.0694318488240242
1728845399837340700,3.871340576171875,1.357512354850769,9.730035781860352,0.07422025501728058
1728845399847350300,3.881350341796875,1.3982137441635132,9.715670585632324,0.06703764945268631
1728845399857360100,3.891360107421875,1.4221558570861816,9.725247383117676,0.05746084079146385
1728845399867339300,3.90133935546875,1.4437036514282227,9.746794700622559,0.040701430290937424
1728845399877318700,3.911318603515625,1.4245500564575195,9.75397777557373,0.040701430290937424
1728845399887328300,3.921328369140625,1.3838485479354858,9.763554573059082,0.016759412363171577
1728845399897338000,3.931338134765625,1.3503297567367554,9.75637149810791,0.016759412363171577
1728845399907317200,3.941317138671875,1.316810965538025,9.742006301879883,0.0454898327589035
1728845399917296600,3.951296630859375,1.2952631711959839,9.725247383117676,0.06224924325942993
1728845399927275800,3.96127587890625,1.3048399686813354,9.718064308166504,0.0694318488240242
1728845399937285600,3.97128564453125,1.3287819623947144,9.730035781860352,0.08379705995321274
1728845399947295500,3.98129541015625,1.3982137441635132,9.737217903137207,0.0694318488240242
1728845399957305000,3.99130517578125,1.4460978507995605,9.744400978088379,0.05506663769483566
1728845399967284500,4.001284423828125,1.4389152526855469,9.744400978088379,0.038307227194309235
1728845399977263600,4.011263671875,1.4269442558288574,9.739612579345703,0.035913024097681046
1728845399987243000,4.021242919921875,1.3982137441635132,9.749189376831055,0.028730420395731926
1728845399997252600,4.031252685546875,1.357512354850769,9.751583099365234,0.031124621629714966
1728845400007262500,4.041262451171875,1.3120225667953491,9.751583099365234,0.038307227194309235
1728845400017272300,4.051272216796875,1.3024457693099976,9.732429504394531,0.05027823522686958
1728845400027251500,4.06125146484375,1.3048399686813354,9.730035781860352,0.06703764945268631
1728845400037230600,4.071230712890625,1.3335703611373901,9.718064308166504,0.08140286058187485
1728845400047210000,4.0812099609375,1.3623007535934448,9.727641105651855,0.07182604819536209
1728845400057219600,4.091219482421875,1.3910311460494995,9.732429504394531,0.0694318488240242
1728845400067229400,4.1012294921875,1.4389152526855469,9.739612579345703,0.05746084079146385
1728845400077239300,4.1112392578125,1.4389152526855469,9.761159896850586,0.0454898327589035
1728845400087218400,4.121218505859375,1.4245500564575195,9.746794700622559,0.033518824726343155
1728845400097197800,4.13119775390625,1.4077905416488647,9.734824180603027,0.031124621629714966
1728845400107177000,4.141177001953125,1.3503297567367554,9.749189376831055,0.026336219161748886
1728845400117156400,4.15115625,1.3072341680526733,9.725247383117676,0.05985504388809204
1728845400127135500,4.161135498046875,1.3024457693099976,9.732429504394531,0.06464344263076782
1728845400137145300,4.171145263671875,1.3263877630233765,9.727641105651855,0.07422025501728058
1728845400147124500,4.18112451171875,1.3623007535934448,9.727641105651855,0.07182604819536209
1728845400157134300,4.19113427734375,1.403002142906189,9.734824180603027,0.05985504388809204
1728845400167144000,4.20114404296875,1.434126853942871,9.737217903137207,0.05027823522686958
1728845400177153800,4.21115380859375,1.4460978507995605,9.730035781860352,0.0454898327589035
1728845400187133000,4.2211328125,1.4269442558288574,9.742006301879883,0.028730420395731926
1728845400197112300,4.2311123046875,1.3862427473068237,9.75397777557373,0.033518824726343155
1728845400207091500,4.241091552734375,1.3503297567367554,9.749189376831055,0.038307227194309235
1728845400217070800,4.25107080078125,1.3120225667953491,9.744400978088379,0.043095629662275314
1728845400227050000,4.261050048828125,1.290474772453308,9.732429504394531,0.05267243832349777
1728845400237029400,4.271029296875,1.3000515699386597,9.720458984375,0.07422025501728058
1728845400247008500,4.281008544921875,1.3311761617660522,9.718064308166504,0.0694318488240242
1728845400257018400,4.291018310546875,1.3646949529647827,9.737217903137207,0.08619125932455063
1728845400266967000,4.300967041015625,1.434126853942871,9.744400978088379,0.047884032130241394
1728845400276977000,4.310976806640625,1.4389152526855469,9.746794700622559,0.038307227194309235
1728845400286986500,4.320986572265625,1.4269442558288574,9.734824180603027,0.028730420395731926
1728845400296966000,4.3309658203125,1.381454348564148,9.75637149810791,0.026336219161748886
1728845400306975500,4.3409755859375,1.357512354850769,9.751583099365234,0.031124621629714966
1728845400316985300,4.3509853515625,1.3239935636520386,9.742006301879883,0.0454898327589035
1728845400326964500,4.360964599609375,1.3024457693099976,9.72285270690918,0.06224924325942993
1728845400336943900,4.37094384765625,1.3072341680526733,9.706093788146973,0.07182604819536209
1728845400346923000,4.380923095703125,1.3287819623947144,9.703699111938477,0.07661445438861847
1728845400356902400,4.39090234375,1.3838485479354858,9.727641105651855,0.07422025501728058
1728845400366881500,4.400881591796875,1.4173674583435059,9.751583099365234,0.05506663769483566
1728845400376861000,4.41086083984375,1.4437036514282227,9.761159896850586,0.043095629662275314
1728845400386840000,4.420840087890625,1.4413094520568848,9.758766174316406,0.031124621629714966
1728845400396850000,4.430849853515625,1.41257905960083,9.75397777557373,0.028730420395731926
1728845400406798600,4.440798583984375,1.3766659498214722,9.758766174316406,0.038307227194309235
1728845400416808400,4.450808349609375,1.3192051649093628,9.749189376831055,0.038307227194309235
1728845400426818000,4.460818115234375,1.3072341680526733,9.737217903137207,0.0694318488240242
1728845400436797400,4.47079736328125,1.3072341680526733,9.708487510681152,0.07661445438861847
1728845400446807000,4.48080712890625,1.3455413579940796,9.701305389404297,0.07661445438861847
1728845400456817000,4.49081689453125,1.3886369466781616,9.715670585632324,0.05985504388809204
1728845400466796000,4.500796142578125,1.403002142906189,9.744400978088379,0.06224924325942993
1728845400476775400,4.510775390625,1.4484920501708984,9.749189376831055,0.043095629662275314
1728845400486754600,4.520754638671875,1.434126853942871,9.746794700622559,0.031124621629714966
1728845400496734000,4.53073388671875,1.4221558570861816,9.737217903137207,0.026336219161748886
1728845400506713000,4.540713134765625,1.37906014919281,9.734824180603027,0.026336219161748886
1728845400516723000,4.550722900390625,1.3431471586227417,9.730035781860352,0.035913024097681046
1728845400526671600,4.560671630859375,1.314416766166687,9.746794700622559,0.05267243832349777
1728845400536681500,4.570681396484375,1.2976573705673218,9.737217903137207,0.06464344263076782
1728845400546691000,4.580691162109375,1.316810965538025,9.730035781860352,0.0694318488240242
1728845400556701000,4.590700927734375,1.357512354850769,9.715670585632324,0.0694318488240242
1728845400566680000,4.60068017578125,1.3934253454208374,9.730035781860352,0.0694318488240242
1728845400576659500,4.610659423828125,1.4460978507995605,9.751583099365234,0.043095629662275314
1728845400586638600,4.620638671875,1.4484920501708984,9.761159896850586,0.028730420395731926
1728845400596618000,4.630617919921875,1.4101848602294922,9.761159896850586,0.031124621629714966
1728845400606597000,4.64059716796875,1.3718775510787964,9.749189376831055,0.028730420395731926
1728845400616576500,4.650576416015625,1.3335703611373901,9.734824180603027,0.035913024097681046
1728845400626555600,4.6605556640625,1.3120225667953491,9.727641105651855,0.05027823522686958
1728845400636565500,4.6705654296875,1.2952631711959839,9.732429504394531,0.07422025501728058
1728845400646544600,4.680544677734375,1.3215993642807007,9.727641105651855,0.07182604819536209
1728845400656554500,4.690554443359375,1.3407529592514038,9.734824180603027,0.07900865375995636
1728845400666564000,4.700564208984375,1.3862427473068237,9.718064308166504,0.08140286058187485
1728845400676543500,4.71054345703125,1.4173674583435059,9.720458984375,0.05746084079146385
1728845400686553000,4.720552978515625,1.4389152526855469,9.742006301879883,0.05027823522686958
1728845400696563000,4.73056298828125,1.4413094520568848,9.75637149810791,0.043095629662275314
1728845400706542300,4.740542236328125,1.41257905960083,9.758766174316406,0.026336219161748886
1728845400716521500,4.750521484375,1.3718775510787964,9.749189376831055,0.028730420395731926
1728845400726500600,4.76050048828125,1.3096283674240112,9.734824180603027,0.05027823522686958
1728845400736480000,4.77047998046875,1.2976573705673218,9.720458984375,0.06464344263076782
1728845400746459100,4.780459228515625,1.3287819623947144,9.720458984375,0.07422025501728058
1728845400756438500,4.7904384765625,1.3623007535934448,9.725247383117676,0.06464344263076782
1728845400766417700,4.800417724609375,1.3982137441635132,9.730035781860352,0.07422025501728058
1728845400776427500,4.810427490234375,1.4293384552001953,9.737217903137207,0.05027823522686958
1728845400786406700,4.82040673828125,1.434126853942871,9.744400978088379,0.05027823522686958
1728845400796416500,4.83041650390625,1.4293384552001953,9.744400978088379,0.028730420395731926
1728845400806365200,4.840365234375,1.4101848602294922,9.742006301879883,0.035913024097681046
1728845400816375000,4.850375,1.359906554222107,9.749189376831055,0.026336219161748886
1728845400826323700,4.86032373046875,1.3239935636520386,9.742006301879883,0.035913024097681046
1728845400836333600,4.87033349609375,1.3048399686813354,9.725247383117676,0.05506663769483566
1728845400846312700,4.880312744140625,1.2952631711959839,9.718064308166504,0.06464344263076782
1728845400856322600,4.890322509765625,1.3215993642807007,9.720458984375,0.05985504388809204
1728845400866332200,4.900332275390625,1.3527239561080933,9.718064308166504,0.07900865375995636
1728845400876311600,4.9103115234375,1.4053963422775269,9.730035781860352,0.06703764945268631
1728845400886321200,4.920321044921875,1.434126853942871,9.742006301879883,0.05027823522686958
1728845400896300500,4.930300537109375,1.4269442558288574,9.746794700622559,0.028730420395731926
1728845400906310400,4.940310302734375,1.403002142906189,9.744400978088379,0.023942016065120697
1728845400916320000,4.950320068359375,1.3551181554794312,9.75397777557373,0.035913024097681046
1728845400926299400,4.96029931640625,1.3263877630233765,9.737217903137207,0.031124621629714966
1728845400936309000,4.97030908203125,1.3048399686813354,9.749189376831055,0.0454898327589035
1728845400946288400,4.980288330078125,1.314416766166687,9.730035781860352,0.06703764945268631
1728845400956267500,4.990267578125,1.3215993642807007,9.720458984375,0.07900865375995636
1728845400966247000,5.000246826171875,1.359906554222107,9.727641105651855,0.07422025501728058
1728845400976226000,5.01022607421875,1.403002142906189,9.72285270690918,0.07182604819536209
1728845400986205200,5.020205078125,1.4389152526855469,9.746794700622559,0.05267243832349777
1728845400996184600,5.0301845703125,1.436521053314209,9.744400978088379,0.038307227194309235
1728845401006163700,5.040163818359375,1.455674648284912,9.765948295593262,0.033518824726343155
1728845401016143000,5.05014306640625,1.4173674583435059,9.75397777557373,0.028730420395731926
1728845401026122200,5.060122314453125,1.3503297567367554,9.737217903137207,0.016759412363171577
1728845401036101600,5.0701015625,1.3096283674240112,9.732429504394531,0.05746084079146385
1728845401046080800,5.080080810546875,1.2976573705673218,9.732429504394531,0.0694318488240242
1728845401056090600,5.090090576171875,1.3215993642807007,9.720458984375,0.07661445438861847
1728845401066039300,5.100039306640625,1.3766659498214722,9.718064308166504,0.07900865375995636
1728845401076049200,5.110049072265625,1.400607943534851,9.706093788146973,0.07182604819536209
1728845401086058800,5.120058837890625,1.4245500564575195,9.718064308166504,0.047884032130241394
1728845401096068600,5.130068603515625,1.4484920501708984,9.75637149810791,0.040701430290937424
1728845401106047700,5.1400478515625,1.434126853942871,9.75397777557373,0.031124621629714966
1728845401116027100,5.150027099609375,1.3838485479354858,9.763554573059082,0.026336219161748886
1728845401126006300,5.16000634765625,1.338358759880066,9.751583099365234,0.031124621629714966
1728845401135985700,5.169985595703125,1.3263877630233765,9.720458984375,0.038307227194309235
1728845401145964800,5.17996484375,1.314416766166687,9.725247383117676,0.047884032130241394
1728845401155944200,5.189944091796875,1.314416766166687,9.725247383117676,0.06703764945268631
1728845401165923300,5.19992333984375,1.3311761617660522,9.730035781860352,0.08619125932455063
1728845401175933200,5.20993310546875,1.3718775510787964,9.718064308166504,0.07900865375995636
1728845401185912300,5.219912353515625,1.434126853942871,9.727641105651855,0.05506663769483566
1728845401195922200,5.229922119140625,1.4484920501708984,9.727641105651855,0.035913024097681046
1728845401205931800,5.239931884765625,1.4101848602294922,9.742006301879883,0.023942016065120697
1728845401215911200,5.2499111328125,1.3886369466781616,9.75637149810791,0.028730420395731926
1728845401225920800,5.259920654296875,1.3694833517074585,9.765948295593262,0.023942016065120697
1728845401235930600,5.2699306640625,1.3287819623947144,9.749189376831055,0.047884032130241394
1728845401245910000,5.279909912109375,1.3096283674240112,9.727641105651855,0.05506663769483566
1728845401255889200,5.28988916015625,1.3000515699386597,9.718064308166504,0.06464344263076782
1728845401265868300,5.299868408203125,1.3407529592514038,9.718064308166504,0.07182604819536209
1728845401275847700,5.30984765625,1.37906014919281,9.72285270690918,0.07900865375995636
1728845401285826800,5.319826904296875,1.4101848602294922,9.739612579345703,0.05506663769483566
1728845401295806200,5.32980615234375,1.4389152526855469,9.758766174316406,0.05027823522686958
1728845401305785300,5.339785400390625,1.460463047027588,9.749189376831055,0.035913024097681046
1728845401315764700,5.3497646484375,1.4293384552001953,9.739612579345703,0.031124621629714966
1728845401325743900,5.359743896484375,1.3838485479354858,9.72285270690918,0.033518824726343155
1728845401335753700,5.369753662109375,1.314416766166687,9.730035781860352,0.047884032130241394
1728845401345732900,5.37973291015625,1.3096283674240112,9.744400978088379,0.05985504388809204
1728845401355742700,5.38974267578125,1.3239935636520386,9.742006301879883,0.07661445438861847
1728845401365691400,5.39969140625,1.3431471586227417,9.720458984375,0.0694318488240242
1728845401375701200,5.409701171875,1.37906014919281,9.703699111938477,0.07422025501728058
1728845401385710800,5.4197109375,1.4197616577148438,9.713275909423828,0.05985504388809204
1728845401395690200,5.429690185546875,1.4532804489135742,9.737217903137207,0.0454898327589035
1728845401405699800,5.439699951171875,1.4437036514282227,9.770736694335938,0.028730420395731926
1728845401415679200,5.44967919921875,1.41257905960083,9.746794700622559,0.023942016065120697
1728845401425688800,5.459688720703125,1.3838485479354858,9.737217903137207,0.026336219161748886
1728845401435698700,5.46969873046875,1.3455413579940796,9.720458984375,0.0454898327589035
1728845401445678000,5.479677978515625,1.3215993642807007,9.715670585632324,0.043095629662275314
1728845401455657200,5.4896572265625,1.292868971824646,9.730035781860352,0.0694318488240242
1728845401465636400,5.49963623046875,1.3120225667953491,9.746794700622559,0.08140286058187485
1728845401475615700,5.50961572265625,1.3479355573654175,9.725247383117676,0.07422025501728058
1728845401485595000,5.519594970703125,1.3910311460494995,9.713275909423828,0.06464344263076782
1728845401495574300,5.52957421875,1.4293384552001953,9.708487510681152,0.038307227194309235
1728845401505553400,5.539553466796875,1.4484920501708984,9.646238327026367,0.026336219161748886
1728845401515532800,5.54953271484375,1.3718775510787964,9.521739959716797,-0.002394201699644327
1728845401525512000,5.559511962890625,1.4628572463989258,10.218452453613281,0.1388636976480484
1728845401535491000,5.569490966796875,1.2330138683319092,10.38844108581543,-0.023942016065120697
1728845401545470500,5.579470458984375,1.192312479019165,9.62947940826416,0.05746084079146385
1728845401555449600,5.58944970703125,1.3646949529647827,9.385271072387695,0.07422025501728058
1728845401565429000,5.599428955078125,1.3934253454208374,9.564835548400879,0.07422025501728058
1728845401575438600,5.6094384765625,1.3670891523361206,9.794678688049316,-0.019153613597154617
1728845401585418000,5.61941796875,1.403002142906189,9.904812812805176,0.10295066982507706
1728845401595427800,5.629427734375,1.4053963422775269,9.981427192687988,0.05267243832349777
1728845401605437400,5.6394375,1.3718775510787964,9.66539192199707,0.07182604819536209
1728845401615416800,5.649416748046875,1.4245500564575195,9.567230224609375,-0.0071826050989329815
1728845401625426400,5.659426513671875,1.4724340438842773,9.57441234588623,0.06464344263076782
1728845401635436300,5.669436279296875,1.3263877630233765,9.720458984375,0.05027823522686958
1728845401645415400,5.67941552734375,1.2641384601593018,9.847352027893066,0.040701430290937424
1728845401655394800,5.689394775390625,1.3120225667953491,9.84256362915039,0.090979665517807
1728845401665374000,5.6993740234375,1.3287819623947144,9.78989028930664,0.06224924325942993
1728845401675353300,5.709353271484375,1.3862427473068237,9.68694019317627,0.06464344263076782
1728845401685332500,5.71933251953125,1.3862427473068237,9.62947940826416,0.05027823522686958
1728845401695312000,5.729311767578125,1.4197616577148438,9.691728591918945,0.05985504388809204
1728845401705291000,5.739291015625,1.4389152526855469,9.768342971801758,0.05027823522686958
1728845401715270100,5.749270263671875,1.381454348564148,9.832986831665039,0.031124621629714966
1728845401725249500,5.75924951171875,1.400607943534851,9.797073364257812,0.05027823522686958
1728845401735259100,5.769259033203125,1.3239935636520386,9.725247383117676,0.035913024097681046
1728845401745238500,5.779238525390625,1.3239935636520386,9.696516990661621,0.033518824726343155
1728845401755248400,5.789248291015625,1.292868971824646,9.684545516967773,0.05985504388809204
1728845401765197000,5.799197021484375,1.3000515699386597,9.734824180603027,0.06224924325942993
1728845401775206700,5.80920654296875,1.335964560508728,9.782708168029785,0.05267243832349777
1728845401785216500,5.819216552734375,1.3934253454208374,9.770736694335938,0.06703764945268631
1728845401795196000,5.82919580078125,1.4460978507995605,9.742006301879883,0.05746084079146385
1728845401805205500,5.83920556640625,1.434126853942871,9.710882186889648,0.035913024097681046
1728845401815185000,5.849184814453125,1.403002142906189,9.713275909423828,0.035913024097681046
1728845401825194500,5.859194580078125,1.4053963422775269,9.758766174316406,0.023942016065120697
1728845401835174000,5.869173828125,1.3527239561080933,9.770736694335938,0.031124621629714966
1728845401845183500,5.87918359375,1.2976573705673218,9.770736694335938,0.028730420395731926
1728845401855193300,5.889193359375,1.2832920551300049,9.742006301879883,0.0454898327589035
1728845401865172500,5.89917236328125,1.3072341680526733,9.703699111938477,0.06703764945268631
1728845401875152000,5.90915185546875,1.3311761617660522,9.696516990661621,0.07422025501728058
1728845401885131000,5.919131103515625,1.3694833517074585,9.713275909423828,0.0694318488240242
1728845401895140900,5.929140869140625,1.3934253454208374,9.742006301879883,0.07422025501728058
1728845401905120000,5.9391201171875,1.4245500564575195,9.742006301879883,0.06464344263076782
1728845401915129900,5.9491298828125,1.4293384552001953,9.749189376831055,0.0454898327589035
1728845401925139700,5.9591396484375,1.414973258972168,9.742006301879883,0.035913024097681046
1728845401935149300,5.9691494140625,1.381454348564148,9.730035781860352,0.026336219161748886
1728845401945128700,5.979128662109375,1.3479355573654175,9.751583099365234,0.023942016065120697
1728845401955138300,5.98913818359375,1.314416766166687,9.75637149810791,0.035913024097681046
1728845401965148200,5.999148193359375,1.2976573705673218,9.730035781860352,0.07900865375995636
1728845401975158000,6.009157958984375,1.3239935636520386,9.718064308166504,0.07422025501728058
1728845401985137200,6.01913720703125,1.3694833517074585,9.72285270690918,0.07182604819536209
1728845401995116500,6.029116455078125,1.41257905960083,9.715670585632324,0.05985504388809204
1728845402005095700,6.039095703125,1.4460978507995605,9.737217903137207,0.047884032130241394
1728845402015074800,6.04907470703125,1.4317326545715332,9.761159896850586,0.05027823522686958
1728845402025054200,6.05905419921875,1.414973258972168,9.768342971801758,0.031124621629714966
1728845402035064000,6.06906396484375,1.3958195447921753,9.749189376831055,0.033518824726343155
1728845402045043200,6.079043212890625,1.3527239561080933,9.737217903137207,0.028730420395731926
1728845402055053000,6.089052978515625,1.314416766166687,9.72285270690918,0.043095629662275314
1728845402065062700,6.099062744140625,1.2952631711959839,9.706093788146973,0.06224924325942993
1728845402075072500,6.109072509765625,1.3072341680526733,9.730035781860352,0.0694318488240242
1728845402085051600,6.1190517578125,1.316810965538025,9.742006301879883,0.07422025501728058
1728845402095031000,6.129031005859375,1.359906554222107,9.715670585632324,0.08140286058187485
1728845402105010200,6.13901025390625,1.414973258972168,9.730035781860352,0.05985504388809204
1728845402115020000,6.14902001953125,1.4317326545715332,9.737217903137207,0.06224924325942993
1728845402125030000,6.15902978515625,1.4317326545715332,9.742006301879883,0.031124621629714966
1728845402135039500,6.16903955078125,1.3934253454208374,9.758766174316406,0.028730420395731926
1728845402145019000,6.179018798828125,1.3431471586227417,9.744400978088379,0.033518824726343155
1728845402154998000,6.188998046875,1.3024457693099976,9.746794700622559,0.043095629662275314
1728845402164977400,6.198977294921875,1.3096283674240112,9.734824180603027,0.05027823522686958
1728845402174956500,6.20895654296875,1.3192051649093628,9.725247383117676,0.06464344263076782
1728845402184935700,6.218935791015625,1.335964560508728,9.715670585632324,0.07422025501728058
1728845402194945500,6.228945556640625,1.3623007535934448,9.72285270690918,0.08619125932455063
1728845402204924700,6.238924560546875,1.4101848602294922,9.715670585632324,0.0694318488240242
1728845402214904000,6.248904052734375,1.4437036514282227,9.746794700622559,0.05267243832349777
1728845402224914000,6.258913818359375,1.434126853942871,9.763554573059082,0.028730420395731926
1728845402234893000,6.26889306640625,1.4293384552001953,9.751583099365234,0.033518824726343155
1728845402244872200,6.2788720703125,1.3838485479354858,9.758766174316406,0.028730420395731926
1728845402254882000,6.288882080078125,1.3407529592514038,9.751583099365234,0.035913024097681046
1728845402264861400,6.298861328125,1.3120225667953491,9.734824180603027,0.043095629662275314
1728845402274871000,6.30887109375,1.290474772453308,9.732429504394531,0.05985504388809204
1728845402284881000,6.318880859375,1.3239935636520386,9.720458984375,0.07422025501728058
1728845402294860000,6.328860107421875,1.3766659498214722,9.715670585632324,0.07900865375995636
1728845402304839400,6.33883935546875,1.4053963422775269,9.718064308166504,0.05746084079146385
1728845402314849000,6.34884912109375,1.4317326545715332,9.734824180603027,0.05985504388809204
1728845402324828400,6.358828369140625,1.4437036514282227,9.742006301879883,0.031124621629714966
1728845402334807600,6.3688076171875,1.4197616577148438,9.761159896850586,0.033518824726343155
1728845402344817400,6.3788173828125,1.3766659498214722,9.758766174316406,0.023942016065120697
1728845402354827000,6.388826904296875,1.3407529592514038,9.749189376831055,0.035913024097681046
1728845402364806400,6.398806396484375,1.314416766166687,9.727641105651855,0.047884032130241394
1728845402374785500,6.40878564453125,1.3000515699386597,9.725247383117676,0.05746084079146385
1728845402384765000,6.418764892578125,1.2976573705673218,9.739612579345703,0.07182604819536209
1728845402394774500,6.4287744140625,1.3311761617660522,9.725247383117676,0.07422025501728058
1728845402404784400,6.438784423828125,1.3766659498214722,9.730035781860352,0.06464344263076782
1728845402414794200,6.448794189453125,1.41257905960083,9.730035781860352,0.05746084079146385
1728845402424773400,6.4587734375,1.434126853942871,9.744400978088379,0.05027823522686958
1728845402434752800,6.468752685546875,1.4484920501708984,9.739612579345703,0.047884032130241394
1728845402444732000,6.47873193359375,1.414973258972168,9.749189376831055,0.028730420395731926
1728845402454741800,6.48874169921875,1.3527239561080933,9.742006301879883,0.031124621629714966
1728845402464751400,6.49875146484375,1.314416766166687,9.737217903137207,0.040701430290937424
1728845402474730800,6.508730712890625,1.292868971824646,9.720458984375,0.06703764945268631
1728845402484710000,6.5187099609375,1.3024457693099976,9.720458984375,0.07422025501728058
1728845402494689300,6.528689208984375,1.3311761617660522,9.715670585632324,0.06703764945268631
1728845402504668400,6.53866845703125,1.3934253454208374,9.725247383117676,0.08858546614646912
1728845402514678300,6.54867822265625,1.4173674583435059,9.739612579345703,0.06224924325942993
1728845402524688000,6.55868798828125,1.4293384552001953,9.739612579345703,0.047884032130241394
1728845402534667300,6.568667236328125,1.4293384552001953,9.761159896850586,0.035913024097681046
1728845402544676900,6.5786767578125,1.4197616577148438,9.75397777557373,0.033518824726343155
1728845402554686700,6.588686767578125,1.3646949529647827,9.732429504394531,0.026336219161748886
1728845402564666000,6.598666015625,1.3239935636520386,9.734824180603027,0.033518824726343155
1728845402574675700,6.60867578125,1.3024457693099976,9.737217903137207,0.05267243832349777
1728845402584655000,6.618655029296875,1.280897855758667,9.730035781860352,0.06224924325942993
1728845402594664700,6.628664794921875,1.3072341680526733,9.734824180603027,0.07422025501728058
1728845402604674600,6.638674560546875,1.3479355573654175,9.725247383117676,0.07900865375995636
1728845402614684400,6.648684326171875,1.3910311460494995,9.720458984375,0.0694318488240242
1728845402624663600,6.65866357421875,1.4245500564575195,9.737217903137207,0.0454898327589035
1728845402634642700,6.668642578125,1.4317326545715332,9.75397777557373,0.026336219161748886
1728845402644622000,6.6786220703125,1.4053963422775269,9.749189376831055,0.023942016065120697
1728845402654632000,6.6886318359375,1.37906014919281,9.751583099365234,0.023942016065120697
1728845402664641500,6.6986416015625,1.3287819623947144,9.75637149810791,0.040701430290937424
1728845402674651400,6.7086513671875,1.3024457693099976,9.737217903137207,0.05985504388809204
1728845402684630500,6.718630615234375,1.3120225667953491,9.730035781860352,0.07182604819536209
1728845402694610000,6.72860986328125,1.3024457693099976,9.713275909423828,0.07422025501728058
1728845402704619500,6.73861962890625,1.3551181554794312,9.72285270690918,0.07661445438861847
1728845402714599000,6.748598876953125,1.3982137441635132,9.72285270690918,0.06703764945268631
1728845402724608500,6.7586083984375,1.4197616577148438,9.749189376831055,0.05985504388809204
1728845402734588000,6.768587890625,1.4437036514282227,9.75637149810791,0.040701430290937424
1728845402744567000,6.778567138671875,1.4293384552001953,9.758766174316406,0.043095629662275314
1728845402754577000,6.788576904296875,1.4077905416488647,9.744400978088379,0.023942016065120697
1728845402764556000,6.79855615234375,1.3742717504501343,9.739612579345703,0.021547814831137657
1728845402774535400,6.808535400390625,1.3311761617660522,9.737217903137207,0.038307227194309235
1728845402784545300,6.818545166015625,1.3048399686813354,9.715670585632324,0.07182604819536209
1728845402794524400,6.8285244140625,1.3120225667953491,9.727641105651855,0.06703764945268631
1728845402804503600,6.838503662109375,1.359906554222107,9.732429504394531,0.08140286058187485
1728845402814513400,6.848513427734375,1.400607943534851,9.727641105651855,0.06703764945268631
1728845402824523300,6.858523193359375,1.4269442558288574,9.734824180603027,0.05267243832349777
1728845402834532900,6.868532958984375,1.4245500564575195,9.727641105651855,0.038307227194309235
1728845402844512300,6.87851220703125,1.4437036514282227,9.749189376831055,0.019153613597154617
1728845402854521900,6.88852197265625,1.41257905960083,9.744400978088379,0.035913024097681046
1728845402864531700,6.89853173828125,1.3646949529647827,9.739612579345703,0.023942016065120697
1728845402874541600,6.90854150390625,1.314416766166687,9.742006301879883,0.040701430290937424
1728845402884520700,6.918520751953125,1.2952631711959839,9.727641105651855,0.05267243832349777
1728845402894530600,6.928530517578125,1.3024457693099976,9.72285270690918,0.06703764945268631
1728845402904509700,6.938509765625,1.3455413579940796,9.725247383117676,0.06224924325942993
1728845402914519600,6.94851953125,1.3694833517074585,9.720458984375,0.08140286058187485
1728845402924498700,6.958498779296875,1.3886369466781616,9.734824180603027,0.07182604819536209
1728845402934478000,6.96847802734375,1.4293384552001953,9.742006301879883,0.05506663769483566
1728845402944457200,6.978457275390625,1.4628572463989258,9.765948295593262,0.038307227194309235
1728845402954467000,6.988467041015625,1.403002142906189,9.751583099365234,0.026336219161748886
1728845402964476700,6.9984765625,1.3431471586227417,9.749189376831055,0.028730420395731926
1728845402974456000,7.0084560546875,1.316810965538025,9.749189376831055,0.035913024097681046
1728845402984435200,7.018435302734375,1.3215993642807007,9.725247383117676,0.05746084079146385
1728845402994414600,7.02841455078125,1.3024457693099976,9.739612579345703,0.06703764945268631
1728845403004393700,7.038393798828125,1.3287819623947144,9.734824180603027,0.07422025501728058
1728845403014403600,7.048403564453125,1.3862427473068237,9.730035781860352,0.0694318488240242
1728845403024413400,7.058413330078125,1.4221558570861816,9.734824180603027,0.06703764945268631
1728845403034423000,7.068423095703125,1.4460978507995605,9.742006301879883,0.05027823522686958
1728845403044402400,7.07840234375,1.4413094520568848,9.763554573059082,0.031124621629714966
1728845403054381600,7.088381591796875,1.4173674583435059,9.758766174316406,0.040701430290937424
1728845403064360700,7.098360595703125,1.3934253454208374,9.758766174316406,0.021547814831137657
1728845403074370600,7.10837060546875,1.3694833517074585,9.751583099365234,0.028730420395731926
1728845403084380400,7.11838037109375,1.3192051649093628,9.742006301879883,0.038307227194309235
1728845403094390000,7.12839013671875,1.2976573705673218,9.730035781860352,0.05985504388809204
1728845403104369400,7.138369384765625,1.2952631711959839,9.732429504394531,0.07661445438861847
1728845403114348500,7.1483486328125,1.3335703611373901,9.72285270690918,0.07661445438861847
1728845403124328000,7.158327880859375,1.4077905416488647,9.727641105651855,0.06224924325942993
1728845403134337500,7.168337646484375,1.4197616577148438,9.730035781860352,0.05746084079146385
1728845403144286500,7.178286376953125,1.4484920501708984,9.751583099365234,0.040701430290937424
1728845403154296000,7.188296142578125,1.4317326545715332,9.761159896850586,0.031124621629714966
1728845403164244700,7.19824462890625,1.3862427473068237,9.758766174316406,0.026336219161748886
1728845403174254600,7.208254638671875,1.3407529592514038,9.746794700622559,0.023942016065120697
1728845403184203300,7.218203369140625,1.3024457693099976,9.742006301879883,0.040701430290937424
1728845403194213000,7.228213134765625,1.3000515699386597,9.734824180603027,0.06464344263076782
1728845403204223000,7.238222900390625,1.3120225667953491,9.72285270690918,0.0694318488240242
1728845403214202000,7.2482021484375,1.316810965538025,9.730035781860352,0.07661445438861847
1728845403224212000,7.2582119140625,1.3718775510787964,9.710882186889648,0.07422025501728058
1728845403234191000,7.268191162109375,1.4077905416488647,9.720458984375,0.07422025501728058
1728845403244170500,7.27817041015625,1.4317326545715332,9.739612579345703,0.05746084079146385
1728845403254149600,7.288149658203125,1.436521053314209,9.751583099365234,0.035913024097681046
1728845403264128800,7.298128662109375,1.3982137441635132,9.744400978088379,0.028730420395731926
1728845403274108200,7.308108154296875,1.3479355573654175,9.751583099365234,0.033518824726343155
1728845403284087300,7.31808740234375,1.3072341680526733,9.737217903137207,0.038307227194309235
1728845403294066700,7.328066650390625,1.3000515699386597,9.72285270690918,0.05267243832349777
1728845403304045800,7.3380458984375,1.3000515699386597,9.713275909423828,0.06224924325942993
1728845403314025200,7.348025146484375,1.3407529592514038,9.718064308166504,0.07661445438861847
1728845403324004400,7.35800439453125,1.3646949529647827,9.715670585632324,0.0694318488240242
1728845403333983700,7.367983642578125,1.4077905416488647,9.720458984375,0.05746084079146385
1728845403343963000,7.377962890625,1.434126853942871,9.737217903137207,0.05506663769483566
1728845403353972700,7.38797265625,1.4389152526855469,9.737217903137207,0.043095629662275314
1728845403363982300,7.397982421875,1.4245500564575195,9.749189376831055,0.031124621629714966
1728845403373992200,7.4079921875,1.3886369466781616,9.75397777557373,0.016759412363171577
1728845403383971300,7.417971435546875,1.3527239561080933,9.746794700622559,0.033518824726343155
1728845403393950700,7.42795068359375,1.3215993642807007,9.742006301879883,0.05027823522686958
1728845403403929900,7.437929931640625,1.292868971824646,9.732429504394531,0.05506663769483566
1728845403413909200,7.4479091796875,1.3215993642807007,9.718064308166504,0.07900865375995636
1728845403423888400,7.457888427734375,1.3694833517074585,9.710882186889648,0.07182604819536209
1728845403433898200,7.467898193359375,1.41257905960083,9.720458984375,0.05506663769483566
1728845403443907800,7.477907958984375,1.4413094520568848,9.742006301879883,0.05027823522686958
1728845403453917700,7.487917724609375,1.4317326545715332,9.749189376831055,0.028730420395731926
1728845403463896800,7.497896728515625,1.414973258972168,9.763554573059082,0.031124621629714966
1728845403473876200,7.507876220703125,1.3838485479354858,9.749189376831055,0.023942016065120697
1728845403483855400,7.51785546875,1.335964560508728,9.749189376831055,0.028730420395731926
1728845403493865200,7.527865234375,1.3096283674240112,9.727641105651855,0.05027823522686958
1728845403503875000,7.537875,1.2880805730819702,9.742006301879883,0.0454898327589035
1728845403513854200,7.547854248046875,1.314416766166687,9.734824180603027,0.07661445438861847
1728845403523833600,7.55783349609375,1.338358759880066,9.732429504394531,0.07422025501728058
1728845403533843200,7.56784326171875,1.3766659498214722,9.730035781860352,0.07422025501728058
1728845403543822600,7.577822509765625,1.41257905960083,9.737217903137207,0.05985504388809204
1728845403553801700,7.5878017578125,1.4389152526855469,9.746794700622559,0.0454898327589035
1728845403563811600,7.5978115234375,1.4460978507995605,9.744400978088379,0.038307227194309235
1728845403573790700,7.607790771484375,1.37906014919281,9.758766174316406,0.023942016065120697
1728845403583770000,7.61777001953125,1.335964560508728,9.734824180603027,0.031124621629714966
1728845403593749200,7.627749267578125,1.3000515699386597,9.730035781860352,0.05027823522686958
1728845403603728400,7.637728271484375,1.3000515699386597,9.727641105651855,0.0694318488240242
1728845403613738200,7.64773828125,1.3096283674240112,9.715670585632324,0.08140286058187485
1728845403623748000,7.657748046875,1.3479355573654175,9.734824180603027,0.06703764945268631
1728845403633727200,7.667727294921875,1.37906014919281,9.72285270690918,0.0694318488240242
1728845403643737000,7.677737060546875,1.4173674583435059,9.732429504394531,0.06464344263076782
1728845403653746700,7.68774658203125,1.434126853942871,9.737217903137207,0.035913024097681046
1728845403663726000,7.69772607421875,1.4413094520568848,9.746794700622559,0.038307227194309235
1728845403673705200,7.707705322265625,1.4173674583435059,9.75397777557373,0.026336219161748886
1728845403683684600,7.7176845703125,1.3838485479354858,9.744400978088379,0.026336219161748886
1728845403693663700,7.727663818359375,1.3311761617660522,9.746794700622559,0.033518824726343155
1728845403703643100,7.73764306640625,1.3072341680526733,9.737217903137207,0.047884032130241394
1728845403713622300,7.747622314453125,1.3048399686813354,9.737217903137207,0.06703764945268631
1728845403723601700,7.7576015625,1.3479355573654175,9.72285270690918,0.08619125932455063
1728845403733611300,7.767611328125,1.3718775510787964,9.720458984375,0.07182604819536209
1728845403743590700,7.777590576171875,1.3886369466781616,9.720458984375,0.0694318488240242
1728845403753600300,7.787600341796875,1.455674648284912,9.749189376831055,0.043095629662275314
1728845403763610000,7.797610107421875,1.4532804489135742,9.744400978088379,0.033518824726343155
1728845403773620000,7.807619873046875,1.4173674583435059,9.75637149810791,0.035913024097681046
1728845403783599000,7.81759912109375,1.3670891523361206,9.75397777557373,0.026336219161748886
1728845403793578200,7.827578125,1.3096283674240112,9.75397777557373,0.0454898327589035
1728845403803557600,7.8375576171875,1.3263877630233765,9.746794700622559,0.040701430290937424
1728845403813536800,7.847536865234375,1.3335703611373901,9.727641105651855,0.05267243832349777
1728845403823516200,7.85751611328125,1.3239935636520386,9.725247383117676,0.08140286058187485
1728845403833525800,7.86752587890625,1.338358759880066,9.710882186889648,0.08379705995321274
1728845403843474700,7.877474609375,1.3718775510787964,9.727641105651855,0.07661445438861847
1728845403853484300,7.887484375,1.4245500564575195,9.744400978088379,0.05985504388809204
1728845403863494100,7.897494140625,1.4293384552001953,9.751583099365234,0.043095629662275314
1728845403873504000,7.90750390625,1.4173674583435059,9.746794700622559,0.033518824726343155
1728845403883483100,7.917483154296875,1.4269442558288574,9.734824180603027,0.028730420395731926
1728845403893462300,7.927462158203125,1.3479355573654175,9.734824180603027,0.043095629662275314
1728845403903441700,7.937441650390625,1.3192051649093628,9.737217903137207,0.047884032130241394
1728845403913451500,7.947451416015625,1.292868971824646,9.727641105651855,0.05506663769483566
1728845403923461000,7.957461181640625,1.3072341680526733,9.720458984375,0.07182604819536209
1728845403933471000,7.967470947265625,1.357512354850769,9.727641105651855,0.07422025501728058
1728845403943450000,7.9774501953125,1.3934253454208374,9.727641105651855,0.07422025501728058
1728845403953429500,7.987429443359375,1.4173674583435059,9.727641105651855,0.06703764945268631
1728845403963408600,7.99740869140625,1.4437036514282227,9.758766174316406,0.035913024097681046
1728845403973418500,8.00741845703125,1.4197616577148438,9.75637149810791,0.016759412363171577
1728845403983428000,8.017427978515625,1.3886369466781616,9.749189376831055,0.021547814831137657
1728845403993438000,8.02743798828125,1.3551181554794312,9.749189376831055,0.031124621629714966
1728845404003417300,8.037417236328125,1.3287819623947144,9.720458984375,0.043095629662275314
1728845404013396500,8.047396484375,1.3287819623947144,9.710882186889648,0.05267243832349777
1728845404023375600,8.057375732421875,1.2976573705673218,9.730035781860352,0.06464344263076782
1728845404033385500,8.067385498046875,1.3239935636520386,9.734824180603027,0.07900865375995636
1728845404043395300,8.077395263671875,1.3431471586227417,9.727641105651855,0.07422025501728058
1728845404053374500,8.08737451171875,1.434126853942871,9.730035781860352,0.05746084079146385
1728845404063384300,8.09738427734375,1.4532804489135742,9.739612579345703,0.033518824726343155
1728845404073363500,8.107363525390625,1.4269442558288574,9.751583099365234,0.033518824726343155
1728845404083342800,8.1173427734375,1.3838485479354858,9.758766174316406,0.031124621629714966
1728845404093322000,8.127322021484375,1.3527239561080933,9.749189376831055,0.035913024097681046
1728845404103301400,8.13730126953125,1.3239935636520386,9.75637149810791,0.035913024097681046
1728845404113311000,8.14731103515625,1.3072341680526733,9.727641105651855,0.05746084079146385
1728845404123290400,8.157290283203125,1.3024457693099976,9.72285270690918,0.07182604819536209
1728845404133269500,8.16726953125,1.3311761617660522,9.710882186889648,0.07661445438861847
1728845404143279400,8.177279296875,1.3623007535934448,9.713275909423828,0.07422025501728058
1728845404153289000,8.1872890625,1.414973258972168,9.727641105651855,0.07182604819536209
1728845404163268400,8.197268310546875,1.4269442558288574,9.751583099365234,0.05027823522686958
1728845404173247500,8.20724755859375,1.434126853942871,9.749189376831055,0.033518824726343155
1728845404183227000,8.217226806640625,1.4317326545715332,9.758766174316406,0.023942016065120697
1728845404193206000,8.2272060546875,1.3862427473068237,9.75637149810791,0.021547814831137657
1728845404203185400,8.237185302734375,1.3479355573654175,9.742006301879883,0.023942016065120697
1728845404213195000,8.247195068359375,1.3000515699386597,9.725247383117676,0.05746084079146385
1728845404223204900,8.257204833984375,1.3120225667953491,9.718064308166504,0.07900865375995636
1728845404233214500,8.26721435546875,1.3311761617660522,9.708487510681152,0.0694318488240242
1728845404243193900,8.27719384765625,1.3694833517074585,9.715670585632324,0.07422025501728058
1728845404253173000,8.287173095703125,1.41257905960083,9.727641105651855,0.07182604819536209
1728845404263152400,8.29715234375,1.434126853942871,9.742006301879883,0.05746084079146385
1728845404273162000,8.307161865234375,1.455674648284912,9.742006301879883,0.038307227194309235
1728845404283141400,8.317141357421875,1.4269442558288574,9.751583099365234,0.023942016065120697
1728845404293120500,8.32712060546875,1.3934253454208374,9.749189376831055,0.023942016065120697
1728845404303130400,8.33713037109375,1.3503297567367554,9.746794700622559,0.031124621629714966
1728845404313109500,8.347109619140625,1.314416766166687,9.746794700622559,0.0454898327589035
1728845404323089000,8.3570888671875,1.292868971824646,9.734824180603027,0.05985504388809204
1728845404333098500,8.367098388671875,1.3072341680526733,9.725247383117676,0.07900865375995636
1728845404343047400,8.37704736328125,1.3287819623947144,9.727641105651855,0.08379705995321274
1728845404353057000,8.38705712890625,1.3694833517074585,9.727641105651855,0.07422025501728058
1728845404363067000,8.39706689453125,1.4077905416488647,9.727641105651855,0.07422025501728058
1728845404373076700,8.40707666015625,1.4460978507995605,9.739612579345703,0.040701430290937424
1728845404383056000,8.417055908203125,1.4173674583435059,9.749189376831055,0.038307227194309235
1728845404393035300,8.42703515625,1.3862427473068237,9.744400978088379,0.031124621629714966
1728845404403014400,8.437014404296875,1.3479355573654175,9.742006301879883,0.028730420395731926
1728845404412993500,8.44699365234375,1.3096283674240112,9.737217903137207,0.043095629662275314
1728845404422973000,8.456972900390625,1.3000515699386597,9.732429504394531,0.05027823522686958
1728845404432982500,8.466982421875,1.3096283674240112,9.725247383117676,0.06464344263076782
1728845404442992400,8.476992431640625,1.3335703611373901,9.715670585632324,0.07661445438861847
1728845404453002200,8.487002197265625,1.37906014919281,9.715670585632324,0.07900865375995636
1728845404462981400,8.4969814453125,1.4245500564575195,9.730035781860352,0.05985504388809204
1728845404472960800,8.506960693359375,1.4532804489135742,9.734824180603027,0.05506663769483566
1728845404482940000,8.51693994140625,1.4293384552001953,9.746794700622559,0.033518824726343155
1728845404492949800,8.52694970703125,1.4245500564575195,9.744400978088379,0.023942016065120697
1728845404502898400,8.5368984375,1.400607943534851,9.75637149810791,0.023942016065120697
1728845404512908300,8.546908203125,1.3335703611373901,9.744400978088379,0.035913024097681046
1728845404522918000,8.55691796875,1.290474772453308,9.727641105651855,0.06224924325942993
1728845404532927700,8.566927734375,1.3072341680526733,9.737217903137207,0.0694318488240242
1728845404542907000,8.576906982421875,1.3263877630233765,9.730035781860352,0.07900865375995636
1728845404552886300,8.58688623046875,1.3766659498214722,9.725247383117676,0.07900865375995636
1728845404562865400,8.596865478515625,1.4077905416488647,9.713275909423828,0.06703764945268631
1728845404572844800,8.6068447265625,1.4437036514282227,9.732429504394531,0.0454898327589035
1728845404582824000,8.616823974609375,1.4460978507995605,9.746794700622559,0.023942016065120697
1728845404592833800,8.626833740234375,1.4077905416488647,9.751583099365234,0.026336219161748886
1728845404602843400,8.636843505859375,1.381454348564148,9.75637149810791,0.035913024097681046
1728845404612853200,8.646853271484375,1.3431471586227417,9.734824180603027,0.031124621629714966
1728845404622832400,8.656832275390625,1.3096283674240112,9.730035781860352,0.0454898327589035
1728845404632842200,8.66684228515625,1.2856862545013428,9.727641105651855,0.0694318488240242
1728845404642821600,8.676821533203125,1.3096283674240112,9.720458984375,0.07661445438861847
1728845404652800800,8.68680078125,1.3479355573654175,9.720458984375,0.07422025501728058
1728845404662810600,8.696810546875,1.3742717504501343,9.727641105651855,0.06703764945268631
1728845404672789800,8.706789794921875,1.41257905960083,9.739612579345703,0.06464344263076782
1728845404682769200,8.71676904296875,1.4317326545715332,9.725247383117676,0.040701430290937424
1728845404692778800,8.72677880859375,1.4197616577148438,9.751583099365234,0.023942016065120697
1728845404702788600,8.73678857421875,1.381454348564148,9.737217903137207,0.031124621629714966
1728845404712767700,8.746767822265625,1.3335703611373901,9.746794700622559,0.031124621629714966
1728845404722747100,8.7567470703125,1.314416766166687,9.739612579345703,0.040701430290937424
1728845404732756700,8.7667568359375,1.3000515699386597,9.727641105651855,0.06464344263076782
1728845404742766600,8.7767666015625,1.316810965538025,9.72285270690918,0.07900865375995636
1728845404752745700,8.786745849609375,1.335964560508728,9.727641105651855,0.06703764945268631
1728845404762725000,8.79672509765625,1.37906014919281,9.720458984375,0.06703764945268631
1728845404772735000,8.80673486328125,1.4197616577148438,9.737217903137207,0.05746084079146385
1728845404782744600,8.81674462890625,1.434126853942871,9.744400978088379,0.05267243832349777
1728845404792724000,8.826723876953125,1.434126853942871,9.75637149810791,0.019153613597154617
1728845404802703000,8.836703125,1.414973258972168,9.75397777557373,0.035913024097681046
1728845404812713000,8.846712890625,1.3694833517074585,9.739612579345703,0.023942016065120697
1728845404822692000,8.856692138671875,1.338358759880066,9.737217903137207,0.0454898327589035
1728845404832671500,8.86667138671875,1.314416766166687,9.732429504394531,0.0454898327589035
1728845404842681000,8.87668115234375,1.3072341680526733,9.72285270690918,0.06464344263076782
1728845404852660500,8.886660400390625,1.357512354850769,9.72285270690918,0.07422025501728058
1728845404862639600,8.8966396484375,1.3670891523361206,9.718064308166504,0.07661445438861847
1728845404872619000,8.906618896484375,1.4221558570861816,9.730035781860352,0.06464344263076782
1728845404882598100,8.91659814453125,1.434126853942871,9.737217903137207,0.038307227194309235
1728845404892608000,8.92660791015625,1.4389152526855469,9.742006301879883,0.028730420395731926
1728845404902617600,8.93661767578125,1.41257905960083,9.75397777557373,0.023942016065120697
1728845404912597000,8.946596923828125,1.3742717504501343,9.739612579345703,0.014365210197865963
1728845404922576100,8.956576171875,1.3215993642807007,9.732429504394531,0.038307227194309235
1728845404932555500,8.966555419921875,1.3024457693099976,9.737217903137207,0.05985504388809204
1728845404942534700,8.97653466796875,1.2952631711959839,9.737217903137207,0.06703764945268631
1728845404952544500,8.98654443359375,1.3215993642807007,9.72285270690918,0.07661445438861847
1728845404962554000,8.99655419921875,1.3503297567367554,9.718064308166504,0.090979665517807
1728845404972564000,9.00656396484375,1.3934253454208374,9.730035781860352,0.06703764945268631
1728845404982543000,9.016543212890625,1.41257905960083,9.742006301879883,0.05267243832349777
1728845404992522500,9.0265224609375,1.4460978507995605,9.737217903137207,0.047884032130241394
1728845405002501600,9.036501708984375,1.4317326545715332,9.739612579345703,0.031124621629714966
1728845405012511500,9.046511474609375,1.3646949529647827,9.75637149810791,0.033518824726343155
1728845405022521300,9.056521240234375,1.3335703611373901,9.751583099365234,0.038307227194309235
1728845405032531000,9.066531005859375,1.314416766166687,9.742006301879883,0.047884032130241394
1728845405042510300,9.07651025390625,1.2976573705673218,9.739612579345703,0.06464344263076782
1728845405052489500,9.086489501953125,1.3239935636520386,9.706093788146973,0.08379705995321274
1728845405062468600,9.096468505859375,1.357512354850769,9.710882186889648,0.07422025501728058
1728845405072478500,9.106478515625,1.3982137441635132,9.725247383117676,0.06464344263076782
1728845405082488300,9.11648828125,1.4245500564575195,9.744400978088379,0.06464344263076782
1728845405092467500,9.126467529296875,1.4508862495422363,9.75637149810791,0.038307227194309235
1728845405102477300,9.136477294921875,1.3694833517074585,9.761159896850586,0.016759412363171577
1728845405112456400,9.14645654296875,1.400607943534851,9.75637149810791,0.028730420395731926
1728845405122435800,9.156435791015625,1.3718775510787964,9.749189376831055,0.016759412363171577
1728845405132415000,9.1664150390625,1.3311761617660522,9.730035781860352,0.047884032130241394
1728845405142394400,9.176394287109375,1.3024457693099976,9.744400978088379,0.05267243832349777
1728845405152404000,9.186404052734375,1.3192051649093628,9.730035781860352,0.07661445438861847
1728845405162413800,9.196413818359375,1.359906554222107,9.727641105651855,0.07182604819536209
1728845405172423700,9.206423583984375,1.3766659498214722,9.715670585632324,0.07422025501728058
1728845405182402800,9.21640283203125,1.4173674583435059,9.730035781860352,0.05267243832349777
1728845405192382000,9.2263818359375,1.4245500564575195,9.742006301879883,0.040701430290937424
1728845405202361300,9.236361328125,1.4221558570861816,9.749189376831055,0.016759412363171577
1728845405212340500,9.246340576171875,1.3838485479354858,9.75637149810791,0.028730420395731926
1728845405222319900,9.25631982421875,1.3455413579940796,9.744400978088379,0.023942016065120697
1728845405232329500,9.26632958984375,1.3096283674240112,9.739612579345703,0.035913024097681046
1728845405242339300,9.27633935546875,1.3048399686813354,9.732429504394531,0.06224924325942993
1728845405252312800,9.286312744140625,1.3000515699386597,9.72285270690918,0.08140286058187485
1728845405262292000,9.2962919921875,1.316810965538025,9.725247383117676,0.08619125932455063
1728845405272301800,9.3063017578125,1.3718775510787964,9.718064308166504,0.08379705995321274
1728845405282311700,9.316311767578124,1.4173674583435059,9.730035781860352,0.07182604819536209
1728845405292260400,9.32626025390625,1.4413094520568848,9.734824180603027,0.06224924325942993
1728845405302239500,9.336239501953125,1.4317326545715332,9.734824180603027,0.043095629662275314
1728845405312249300,9.346249267578125,1.4197616577148438,9.75397777557373,0.033518824726343155
1728845405322259200,9.35625927734375,1.3886369466781616,9.744400978088379,0.028730420395731926
1728845405332238300,9.36623828125,1.3215993642807007,9.737217903137207,0.038307227194309235
1728845405342217700,9.3762177734375,1.290474772453308,9.725247383117676,0.05267243832349777
1728845405352196900,9.38619677734375,1.2976573705673218,9.715670585632324,0.07422025501728058
1728845405362145500,9.3961455078125,1.3311761617660522,9.715670585632324,0.07900865375995636
1728845405372155400,9.4061552734375,1.3623007535934448,9.720458984375,0.07900865375995636
1728845405382165200,9.416165283203124,1.4077905416488647,9.727641105651855,0.05746084079146385
1728845405392174800,9.4261748046875,1.4317326545715332,9.734824180603027,0.05746084079146385
1728845405402154200,9.436154296875,1.4317326545715332,9.744400978088379,0.0454898327589035
1728845405412133400,9.44613330078125,1.4317326545715332,9.749189376831055,0.033518824726343155
1728845405422112800,9.45611279296875,1.3838485479354858,9.751583099365234,0.021547814831137657
1728845405432122400,9.466122314453125,1.3431471586227417,9.746794700622559,0.031124621629714966
1728845405442101800,9.476101806640624,1.314416766166687,9.737217903137207,0.035913024097681046
1728845405452111400,9.486111328125,1.2952631711959839,9.727641105651855,0.05027823522686958
1728845405462121200,9.496121337890624,1.3072341680526733,9.725247383117676,0.07900865375995636
1728845405472131000,9.506131103515624,1.3263877630233765,9.727641105651855,0.08140286058187485
1728845405482110200,9.516110107421875,1.3670891523361206,9.72285270690918,0.07900865375995636
1728845405492089300,9.52608935546875,1.4413094520568848,9.732429504394531,0.05267243832349777
1728845405502068700,9.53606884765625,1.434126853942871,9.742006301879883,0.035913024097681046
1728845405512078300,9.546078369140625,1.4173674583435059,9.75397777557373,0.028730420395731926
1728845405522088200,9.556088134765625,1.381454348564148,9.749189376831055,0.023942016065120697
1728845405532098000,9.56609814453125,1.3407529592514038,9.737217903137207,0.033518824726343155
1728845405542077200,9.5760771484375,1.316810965538025,9.737217903137207,0.0454898327589035
1728845405552087000,9.586087158203124,1.3024457693099976,9.732429504394531,0.05985504388809204
1728845405562035700,9.59603564453125,1.316810965538025,9.713275909423828,0.07182604819536209
1728845405572045600,9.606045654296874,1.357512354850769,9.727641105651855,0.08619125932455063
1728845405582055200,9.61605517578125,1.37906014919281,9.720458984375,0.07422025501728058
1728845405592065000,9.62606494140625,1.4173674583435059,9.746794700622559,0.06224924325942993
1728845405602044200,9.636044189453125,1.4460978507995605,9.732429504394531,0.05746084079146385
1728845405612023600,9.6460234375,1.436521053314209,9.75397777557373,0.047884032130241394
1728845405622002700,9.656002685546875,1.4245500564575195,9.746794700622559,0.028730420395731926
1728845405631982000,9.665982177734374,1.3718775510787964,9.75637149810791,0.021547814831137657
1728845405641961200,9.675961181640625,1.3407529592514038,9.744400978088379,0.033518824726343155
1728845405651940600,9.685940673828124,1.2880805730819702,9.715670585632324,0.05506663769483566
1728845405661919700,9.695919677734375,1.3215993642807007,9.72285270690918,0.08140286058187485
1728845405671899100,9.705899169921874,1.3503297567367554,9.730035781860352,0.08379705995321274
1728845405681878300,9.715878173828125,1.3694833517074585,9.713275909423828,0.07182604819536209
1728845405691857400,9.725857421875,1.4173674583435059,9.708487510681152,0.05985504388809204
1728845405701836800,9.7358369140625,1.4293384552001953,9.734824180603027,0.05267243832349777
1728845405711816000,9.74581591796875,1.4413094520568848,9.758766174316406,0.038307227194309235
1728845405721795300,9.75579541015625,1.41257905960083,9.749189376831055,0.033518824726343155
1728845405731805000,9.765804931640625,1.381454348564148,9.749189376831055,0.031124621629714966
1728845405741753900,9.77575390625,1.3407529592514038,9.746794700622559,0.035913024097681046
1728845405751763500,9.785763427734375,1.3096283674240112,9.734824180603027,0.043095629662275314
1728845405761773300,9.795773193359375,1.3096283674240112,9.730035781860352,0.06224924325942993
1728845405771752400,9.80575244140625,1.3239935636520386,9.734824180603027,0.06703764945268631
1728845405781762300,9.81576220703125,1.3407529592514038,9.730035781860352,0.07661445438861847
1728845405791741400,9.825741455078125,1.3838485479354858,9.725247383117676,0.06703764945268631
1728845405801720800,9.835720947265624,1.4508862495422363,9.734824180603027,0.0454898327589035
1728845405811700000,9.845699951171875,1.4317326545715332,9.744400978088379,0.028730420395731926
1728845405821679400,9.855679443359374,1.3910311460494995,9.765948295593262,0.023942016065120697
1728845405831689000,9.86568896484375,1.3646949529647827,9.749189376831055,0.028730420395731926
1728845405841668400,9.87566845703125,1.3407529592514038,9.742006301879883,0.028730420395731926
1728845405851647500,9.8856474609375,1.3096283674240112,9.730035781860352,0.05027823522686958
1728845405861657300,9.8956572265625,1.314416766166687,9.730035781860352,0.06703764945268631
1728845405871636500,9.905636474609375,1.3096283674240112,9.725247383117676,0.06703764945268631
1728845405881616000,9.915615966796874,1.3551181554794312,9.713275909423828,0.07900865375995636
1728845405891625500,9.92562548828125,1.4053963422775269,9.730035781860352,0.07422025501728058
1728845405901635300,9.93563525390625,1.4293384552001953,9.746794700622559,0.06224924325942993
1728845405911645200,9.945645263671874,1.4317326545715332,9.734824180603027,0.0454898327589035
1728845405921624300,9.955624267578125,1.434126853942871,9.749189376831055,0.031124621629714966
1728845405931603700,9.965603759765624,1.4077905416488647,9.744400978088379,0.016759412363171577
1728845405941613300,9.97561328125,1.37906014919281,9.75637149810791,0.033518824726343155
1728845405951623200,9.985623046875,1.3311761617660522,9.734824180603027,0.033518824726343155
1728845405961602300,9.995602294921875,1.3024457693099976,9.737217903137207,0.07422025501728058
1728845405971581700,10.005581787109374,1.3096283674240112,9.720458984375,0.07900865375995636
1728845405981560800,10.015560791015625,1.3527239561080933,9.720458984375,0.0694318488240242
1728845405991570700,10.02557080078125,1.3958195447921753,9.730035781860352,0.06464344263076782
1728845406001580500,10.03558056640625,1.4269442558288574,9.730035781860352,0.05267243832349777
1728845406011590100,10.045590087890625,1.4508862495422363,9.751583099365234,0.040701430290937424
1728845406021569500,10.055569580078124,1.4317326545715332,9.742006301879883,0.028730420395731926
1728845406031548700,10.065548583984375,1.400607943534851,9.739612579345703,0.033518824726343155
1728845406041527800,10.07552783203125,1.3718775510787964,9.744400978088379,0.023942016065120697
1728845406051537700,10.08553759765625,1.3311761617660522,9.744400978088379,0.0454898327589035
1728845406061517000,10.09551708984375,1.2976573705673218,9.737217903137207,0.05506663769483566
1728845406071526700,10.105526611328125,1.3000515699386597,9.725247383117676,0.0694318488240242
1728845406081506000,10.115506103515624,1.3192051649093628,9.727641105651855,0.07182604819536209
1728845406091485200,10.125485107421875,1.359906554222107,9.718064308166504,0.07661445438861847
1728845406101464600,10.135464599609374,1.3934253454208374,9.732429504394531,0.06464344263076782
1728845406111474200,10.14547412109375,1.4317326545715332,9.737217903137207,0.05985504388809204
1728845406121484000,10.155484130859374,1.4389152526855469,9.75637149810791,0.019153613597154617
1728845406131463200,10.165463134765625,1.403002142906189,9.751583099365234,0.026336219161748886
1728845406141473000,10.17547314453125,1.3742717504501343,9.744400978088379,0.028730420395731926
1728845406151483000,10.18548291015625,1.3215993642807007,9.72285270690918,0.033518824726343155
1728845406161462000,10.1954619140625,1.3000515699386597,9.730035781860352,0.05267243832349777
1728845406171441200,10.205441162109375,1.3048399686813354,9.725247383117676,0.07182604819536209
1728845406181420500,10.215420654296874,1.335964560508728,9.72285270690918,0.08379705995321274
1728845406191399700,10.225399658203125,1.3623007535934448,9.72285270690918,0.07422025501728058
1728845406201379000,10.235379150390624,1.4053963422775269,9.730035781860352,0.07422025501728058
1728845406211358200,10.245358154296875,1.4317326545715332,9.739612579345703,0.05027823522686958
1728845406221337600,10.255337646484374,1.436521053314209,9.749189376831055,0.038307227194309235
1728845406231316700,10.265316650390625,1.4293384552001953,9.742006301879883,0.031124621629714966
1728845406241296000,10.2752958984375,1.3910311460494995,9.758766174316406,0.016759412363171577
1728845406251275300,10.285275146484375,1.3551181554794312,9.751583099365234,0.033518824726343155
1728845406261254400,10.29525439453125,1.3287819623947144,9.734824180603027,0.033518824726343155
1728845406271264300,10.30526416015625,1.2952631711959839,9.713275909423828,0.06703764945268631
1728845406281243400,10.315243408203125,1.3263877630233765,9.708487510681152,0.07422025501728058
1728845406291253200,10.325253173828125,1.3742717504501343,9.713275909423828,0.07422025501728058
1728845406301263000,10.33526318359375,1.3982137441635132,9.720458984375,0.06703764945268631
1728845406311272700,10.345272705078125,1.4413094520568848,9.744400978088379,0.05267243832349777
1728845406321252000,10.355252197265624,1.4460978507995605,9.742006301879883,0.038307227194309235
1728845406331261700,10.36526171875,1.4293384552001953,9.742006301879883,0.038307227194309235
1728845406341271600,10.375271484375,1.3934253454208374,9.739612579345703,0.028730420395731926
1728845406351251000,10.3852509765625,1.3527239561080933,9.75397777557373,0.033518824726343155
1728845406361260500,10.395260498046875,1.316810965538025,9.749189376831055,0.040701430290937424
1728845406371240000,10.405239990234374,1.2952631711959839,9.720458984375,0.0694318488240242
1728845406381219000,10.415218994140625,1.3048399686813354,9.713275909423828,0.06464344263076782
1728845406391229000,10.42522900390625,1.3287819623947144,9.710882186889648,0.07900865375995636
1728845406401238500,10.435238525390625,1.3742717504501343,9.72285270690918,0.07182604819536209
1728845406411248400,10.445248291015625,1.41257905960083,9.730035781860352,0.06703764945268631
1728845406421227500,10.4552275390625,1.4437036514282227,9.734824180603027,0.06224924325942993
1728845406431207000,10.46520703125,1.4484920501708984,9.75397777557373,0.038307227194309235
1728845406441186000,10.47518603515625,1.3838485479354858,9.751583099365234,0.026336219161748886
1728845406451196000,10.48519580078125,1.3551181554794312,9.734824180603027,0.033518824726343155
1728845406461205800,10.495205810546874,1.314416766166687,9.739612579345703,0.038307227194309235
1728845406471215400,10.50521533203125,1.3000515699386597,9.730035781860352,0.05985504388809204
1728845406481194800,10.51519482421875,1.3120225667953491,9.742006301879883,0.06703764945268631
1728845406491174000,10.525173828125,1.3407529592514038,9.720458984375,0.07422025501728058
1728845406501153300,10.5351533203125,1.37906014919281,9.72285270690918,0.07182604819536209
1728845406511163000,10.545162841796875,1.403002142906189,9.727641105651855,0.0694318488240242
1728845406521172700,10.5551728515625,1.4484920501708984,9.727641105651855,0.05985504388809204
1728845406531182600,10.5651826171875,1.4460978507995605,9.744400978088379,0.043095629662275314
1728845406541161700,10.57516162109375,1.4293384552001953,9.749189376831055,0.019153613597154617
1728845406551140900,10.585140869140625,1.3982137441635132,9.75397777557373,0.026336219161748886
1728845406561120300,10.595120361328124,1.3479355573654175,9.746794700622559,0.031124621629714966
1728845406571129900,10.6051298828125,1.314416766166687,9.749189376831055,0.035913024097681046
1728845406581109200,10.615109130859375,1.3024457693099976,9.734824180603027,0.05985504388809204
1728845406591088400,10.62508837890625,1.3120225667953491,9.730035781860352,0.0694318488240242
1728845406601067800,10.63506787109375,1.3479355573654175,9.703699111938477,0.07422025501728058
1728845406611077400,10.645077392578125,1.414973258972168,9.734824180603027,0.06464344263076782
1728845406621087200,10.655087158203125,1.4389152526855469,9.72285270690918,0.040701430290937424
1728845406631066600,10.665066650390624,1.4389152526855469,9.739612579345703,0.031124621629714966
1728845406641045800,10.675045654296875,1.436521053314209,9.758766174316406,0.023942016065120697
1728845406651025000,10.68502490234375,1.3862427473068237,9.751583099365234,0.016759412363171577
1728845406661004300,10.69500439453125,1.3479355573654175,9.744400978088379,0.031124621629714966
1728845406671014000,10.705013916015625,1.314416766166687,9.739612579345703,0.043095629662275314
1728845406681023700,10.715023681640625,1.2880805730819702,9.720458984375,0.07182604819536209
1728845406691033600,10.72503369140625,1.3096283674240112,9.710882186889648,0.07661445438861847
1728845406701012700,10.7350126953125,1.3479355573654175,9.720458984375,0.08379705995321274
1728845406710992100,10.7449921875,1.3862427473068237,9.72285270690918,0.07422025501728058
1728845406720971300,10.75497119140625,1.4269442558288574,9.720458984375,0.06224924325942993
1728845406730981000,10.764981201171874,1.4413094520568848,9.737217903137207,0.047884032130241394
1728845406740990700,10.77499072265625,1.4413094520568848,9.739612579345703,0.031124621629714966
1728845406751000600,10.78500048828125,1.4197616577148438,9.746794700622559,0.028730420395731926
1728845406760979700,10.794979736328125,1.3742717504501343,9.742006301879883,0.021547814831137657
1728845406770959000,10.804958984375,1.290474772453308,9.742006301879883,0.05267243832349777
1728845406780938200,10.814938232421875,1.3096283674240112,9.727641105651855,0.07182604819536209
1728845406790948000,10.824947998046875,1.3120225667953491,9.72285270690918,0.07900865375995636
1728845406800958000,10.8349580078125,0.9888052940368652,9.732429504394531,0.06703764945268631
1728845406810967600,10.844967529296875,1.0749965906143188,9.72285270690918,0.07182604819536209
1728845406820947000,10.854947021484374,1.3479355573654175,9.720458984375,0.05506663769483566
1728845406830926000,10.864926025390625,1.3862427473068237,9.730035781860352,0.0454898327589035
1728845406840905500,10.874905517578124,1.434126853942871,9.744400978088379,0.0454898327589035
1728845406850915000,10.8849150390625,1.3886369466781616,9.75397777557373,0.033518824726343155
1728845406860925000,10.894925048828124,1.37906014919281,9.758766174316406,0.021547814831137657
1728845406870934800,10.904934814453124,1.3527239561080933,9.75397777557373,0.033518824726343155
1728845406880914000,10.914913818359375,1.292868971824646,9.734824180603027,0.06224924325942993
1728845406890893000,10.92489306640625,1.2976573705673218,9.72285270690918,0.06703764945268631
1728845406900872400,10.93487255859375,1.335964560508728,9.72285270690918,0.07182604819536209
1728845406910882000,10.944882080078125,1.3551181554794312,9.720458984375,0.07900865375995636
1728845406920892000,10.954891845703125,1.3718775510787964,9.730035781860352,0.06464344263076782
1728845406930901800,10.96490185546875,1.4173674583435059,9.730035781860352,0.05027823522686958
1728845406940881000,10.974880859375,1.4413094520568848,9.739612579345703,0.033518824726343155
1728845406950860300,10.9848603515625,1.4221558570861816,9.751583099365234,0.028730420395731926
1728845406960839400,10.99483935546875,1.359906554222107,9.744400978088379,0.038307227194309235
1728845406970849300,11.004849365234374,1.3335703611373901,9.751583099365234,0.038307227194309235
1728845406980828400,11.014828369140625,1.3239935636520386,9.727641105651855,0.05746084079146385
1728845406990807800,11.024807861328124,1.3096283674240112,9.730035781860352,0.06224924325942993
1728845407000817400,11.0348173828125,1.316810965538025,9.713275909423828,0.07422025501728058
1728845407010796800,11.044796875,1.3407529592514038,9.727641105651855,0.07900865375995636
1728845407020776000,11.05477587890625,1.3862427473068237,9.730035781860352,0.07422025501728058
1728845407030785800,11.064785888671874,1.4173674583435059,9.734824180603027,0.05985504388809204
1728845407040795400,11.07479541015625,1.4413094520568848,9.744400978088379,0.038307227194309235
1728845407050774800,11.08477490234375,1.4269442558288574,9.742006301879883,0.031124621629714966
1728845407060784600,11.09478466796875,1.4077905416488647,9.737217903137207,0.033518824726343155
1728845407070763800,11.104763671875,1.3694833517074585,9.751583099365234,0.033518824726343155
1728845407080743000,11.114742919921875,1.338358759880066,9.734824180603027,0.033518824726343155
1728845407090722300,11.124722412109374,1.314416766166687,9.732429504394531,0.05027823522686958
1728845407100701400,11.134701416015625,1.3192051649093628,9.715670585632324,0.07900865375995636
1728845407110711300,11.144711181640625,1.3646949529647827,9.708487510681152,0.07661445438861847
1728845407120690400,11.1546904296875,1.3910311460494995,9.715670585632324,0.07900865375995636
1728845407130669800,11.164669921875,1.4197616577148438,9.727641105651855,0.06464344263076782
1728845407140679400,11.174679443359375,1.4389152526855469,9.75637149810791,0.0454898327589035
1728845407150658800,11.184658935546874,1.4293384552001953,9.758766174316406,0.023942016065120697
1728845407160638000,11.194637939453125,1.400607943534851,9.75397777557373,0.026336219161748886
1728845407170647800,11.204647705078125,1.3670891523361206,9.744400978088379,0.028730420395731926
1728845407180657700,11.21465771484375,1.3407529592514038,9.737217903137207,0.0454898327589035
1728845407190667300,11.224667236328125,1.3096283674240112,9.734824180603027,0.05746084079146385
1728845407200646700,11.234646728515624,1.314416766166687,9.730035781860352,0.06464344263076782
1728845407210656300,11.24465625,1.3215993642807007,9.720458984375,0.08379705995321274
1728845407220666000,11.254666015625,1.3503297567367554,9.725247383117676,0.07422025501728058
1728845407230676000,11.264676025390624,1.400607943534851,9.720458984375,0.07422025501728058
1728845407240655000,11.274655029296875,1.4173674583435059,9.732429504394531,0.05746084079146385
1728845407250665000,11.2846650390625,1.4317326545715332,9.725247383117676,0.038307227194309235
1728845407260674600,11.294674560546875,1.4173674583435059,9.75637149810791,0.019153613597154617
1728845407270654000,11.304654052734374,1.3623007535934448,9.749189376831055,0.016759412363171577
1728845407280633000,11.314633056640625,1.335964560508728,9.751583099365234,0.033518824726343155
1728845407290643000,11.324642822265625,1.3096283674240112,9.737217903137207,0.05506663769483566
1728845407300652800,11.33465283203125,1.2952631711959839,9.727641105651855,0.0694318488240242
1728845407310662400,11.344662353515625,1.335964560508728,9.72285270690918,0.07422025501728058
1728845407320641800,11.354641845703124,1.359906554222107,9.72285270690918,0.07422025501728058
1728845407330651400,11.3646513671875,1.3982137441635132,9.720458984375,0.0694318488240242
1728845407340661200,11.3746611328125,1.4317326545715332,9.739612579345703,0.05985504388809204
1728845407350671000,11.384671142578124,1.4245500564575195,9.744400978088379,0.0454898327589035
1728845407360650200,11.394650146484375,1.4221558570861816,9.749189376831055,0.023942016065120697
1728845407370660000,11.40466015625,1.3958195447921753,9.746794700622559,0.023942016065120697
1728845407380669700,11.414669677734375,1.3503297567367554,9.749189376831055,0.021547814831137657
1728845407390679600,11.424679443359375,1.335964560508728,9.742006301879883,0.040701430290937424
1728845407400658700,11.43465869140625,1.3072341680526733,9.734824180603027,0.05506663769483566
1728845407410668500,11.44466845703125,1.3192051649093628,9.715670585632324,0.07422025501728058
1728845407420678400,11.454678466796874,1.3263877630233765,9.710882186889648,0.08140286058187485
1728845407430688000,11.46468798828125,1.3623007535934448,9.72285270690918,0.07900865375995636
1728845407440667400,11.47466748046875,1.400607943534851,9.730035781860352,0.0694318488240242
1728845407450646500,11.484646484375,1.4413094520568848,9.744400978088379,0.0454898327589035
1728845407460626000,11.4946259765625,1.436521053314209,9.749189376831055,0.031124621629714966
1728845407470635500,11.504635498046875,1.3982137441635132,9.749189376831055,0.026336219161748886
1728845407480645400,11.514645263671875,1.3742717504501343,9.75397777557373,0.026336219161748886
1728845407490655200,11.5246552734375,1.3192051649093628,9.749189376831055,0.0454898327589035
1728845407500634400,11.53463427734375,1.3096283674240112,9.730035781860352,0.05985504388809204
1728845407510644200,11.544644287109374,1.292868971824646,9.708487510681152,0.06703764945268631
1728845407520653800,11.55465380859375,1.3407529592514038,9.72285270690918,0.07900865375995636
1728845407530663700,11.56466357421875,1.3694833517074585,9.725247383117676,0.08619125932455063
1728845407540642800,11.574642822265625,1.403002142906189,9.727641105651855,0.07182604819536209
1728845407550652700,11.584652587890625,1.4484920501708984,9.739612579345703,0.0454898327589035
1728845407560662500,11.59466259765625,1.434126853942871,9.742006301879883,0.035913024097681046
1728845407570641700,11.6046416015625,1.4197616577148438,9.75637149810791,0.023942016065120697
1728845407580621000,11.61462109375,1.3886369466781616,9.749189376831055,0.026336219161748886
1728845407590630700,11.624630615234375,1.357512354850769,9.744400978088379,0.035913024097681046
1728845407600640500,11.634640625,1.316810965538025,9.734824180603027,0.047884032130241394
1728845407610619600,11.64461962890625,1.314416766166687,9.727641105651855,0.05267243832349777
1728845407620599000,11.65459912109375,1.3072341680526733,9.734824180603027,0.08379705995321274
1728845407630608600,11.664608642578125,1.3646949529647827,9.72285270690918,0.08140286058187485
1728845407640618500,11.674618408203125,1.4101848602294922,9.72285270690918,0.06703764945268631
1728845407650597600,11.68459765625,1.4389152526855469,9.730035781860352,0.05985504388809204
1728845407660577000,11.694576904296875,1.4317326545715332,9.742006301879883,0.047884032130241394
1728845407670587000,11.7045869140625,1.4221558570861816,9.744400978088379,0.023942016065120697
1728845407680596500,11.714596435546875,1.37906014919281,9.763554573059082,0.023942016065120697
1728845407690576000,11.724575927734374,1.3503297567367554,9.758766174316406,0.038307227194309235
1728845407700555000,11.734554931640625,1.3239935636520386,9.742006301879883,0.035913024097681046
1728845407710564900,11.74456494140625,1.3072341680526733,9.734824180603027,0.05985504388809204
1728845407720574500,11.754574462890625,1.316810965538025,9.730035781860352,0.07661445438861847
1728845407730584300,11.764584228515625,1.3455413579940796,9.706093788146973,0.06703764945268631
1728845407740563500,11.7745634765625,1.3766659498214722,9.72285270690918,0.07900865375995636
1728845407750573300,11.7845732421875,1.41257905960083,9.727641105651855,0.07182604819536209
1728845407760583200,11.794583251953124,1.4389152526855469,9.737217903137207,0.06224924325942993
1728845407770592800,11.8045927734375,1.4460978507995605,9.75397777557373,0.035913024097681046
1728845407780572200,11.814572265625,1.4197616577148438,9.758766174316406,0.023942016065120697
1728845407790581800,11.824581787109375,1.3910311460494995,9.75397777557373,0.031124621629714966
1728845407800591600,11.834591552734375,1.357512354850769,9.739612579345703,0.035913024097681046
1728845407810601500,11.8446015625,1.3120225667953491,9.737217903137207,0.043095629662275314
1728845407820580600,11.85458056640625,1.3192051649093628,9.718064308166504,0.07661445438861847
1728845407830560000,11.86456005859375,1.3479355573654175,9.72285270690918,0.07422025501728058
1728845407840569600,11.874569580078125,1.3718775510787964,9.725247383117676,0.06703764945268631
1728845407850579500,11.884579345703125,1.4077905416488647,9.737217903137207,0.06464344263076782
1728845407860558600,11.89455859375,1.434126853942871,9.742006301879883,0.05746084079146385
1728845407870538000,11.9045380859375,1.434126853942871,9.749189376831055,0.043095629662275314
1728845407880517000,11.91451708984375,1.4077905416488647,9.744400978088379,0.033518824726343155
1728845407890527000,11.92452685546875,1.3862427473068237,9.749189376831055,0.019153613597154617
1728845407900536800,11.934536865234374,1.3407529592514038,9.746794700622559,0.043095629662275314
1728845407910516000,11.944515869140625,1.3048399686813354,9.744400978088379,0.05506663769483566
1728845407920495000,11.9544951171875,1.2976573705673218,9.739612579345703,0.06703764945268631
1728845407930505000,11.9645048828125,1.3215993642807007,9.730035781860352,0.07900865375995636
1728845407940514800,11.974514892578124,1.3455413579940796,9.718064308166504,0.08140286058187485
1728845407950524400,11.9845244140625,1.3862427473068237,9.725247383117676,0.07422025501728058
1728845407960503800,11.99450390625,1.4173674583435059,9.725247383117676,0.07182604819536209
1728845407970513400,12.004513427734375,1.4413094520568848,9.730035781860352,0.0454898327589035
1728845407980523300,12.014523193359375,1.4293384552001953,9.744400978088379,0.043095629662275314
1728845407990533000,12.024533203125,1.3670891523361206,9.75637149810791,0.031124621629714966
1728845408000512300,12.03451220703125,1.3335703611373901,9.746794700622559,0.05027823522686958
1728845408010522000,12.044522216796874,1.3120225667953491,9.725247383117676,0.05267243832349777
1728845408020531700,12.05453173828125,1.2952631711959839,9.713275909423828,0.07182604819536209
1728845408030541600,12.06454150390625,1.3263877630233765,9.715670585632324,0.08379705995321274
1728845408040521000,12.07452099609375,1.3479355573654175,9.713275909423828,0.07900865375995636
1728845408050530600,12.084530517578125,1.3838485479354858,9.720458984375,0.0694318488240242
1728845408060510000,12.094510009765624,1.4221558570861816,9.742006301879883,0.047884032130241394
1728845408070519600,12.10451953125,1.4389152526855469,9.751583099365234,0.040701430290937424
1728845408080499000,12.1144990234375,1.436521053314209,9.749189376831055,0.033518824726343155
1728845408090478000,12.12447802734375,1.4317326545715332,9.758766174316406,0.023942016065120697
1728845408100457500,12.13445751953125,1.3646949529647827,9.742006301879883,0.028730420395731926
1728845408110436600,12.1444365234375,1.3431471586227417,9.746794700622559,0.05027823522686958
1728845408120415700,12.154415771484375,1.3072341680526733,9.739612579345703,0.06224924325942993
1728845408130425600,12.164425537109375,1.3192051649093628,9.718064308166504,0.06464344263076782
1728845408140435500,12.174435546875,1.3215993642807007,9.718064308166504,0.07661445438861847
1728845408150414600,12.18441455078125,1.3527239561080933,9.713275909423828,0.07900865375995636
1728845408160424400,12.194424560546874,1.4293384552001953,9.734824180603027,0.05746084079146385
1728845408170434000,12.20443408203125,1.4389152526855469,9.75637149810791,0.043095629662275314
1728845408180413400,12.214413330078125,1.434126853942871,9.761159896850586,0.026336219161748886
1728845408190392600,12.224392578125,1.41257905960083,9.746794700622559,0.023942016065120697
1728845408200372000,12.2343720703125,1.37906014919281,9.746794700622559,0.028730420395731926
1728845408210381600,12.244381591796875,1.3239935636520386,9.737217903137207,0.035913024097681046
1728845408220391400,12.254391357421875,1.3072341680526733,9.720458984375,0.05985504388809204
1728845408230401300,12.2644013671875,1.2976573705673218,9.730035781860352,0.0694318488240242
1728845408240380400,12.27438037109375,1.3239935636520386,9.720458984375,0.07422025501728058
1728845408250359800,12.28435986328125,1.3623007535934448,9.725247383117676,0.07182604819536209
1728845408260339000,12.2943388671875,1.400607943534851,9.725247383117676,0.06464344263076782
1728845408270348800,12.304348876953124,1.4293384552001953,9.72285270690918,0.05985504388809204
1728845408280358400,12.3143583984375,1.4413094520568848,9.727641105651855,0.040701430290937424
1728845408290368300,12.3243681640625,1.4245500564575195,9.75397777557373,0.035913024097681046
1728845408300347400,12.334347412109375,1.4077905416488647,9.742006301879883,0.019153613597154617
1728845408310326800,12.344326904296874,1.3862427473068237,9.749189376831055,0.026336219161748886
1728845408320336600,12.354336669921874,1.2976573705673218,9.732429504394531,0.05027823522686958
1728845408330346200,12.36434619140625,1.3192051649093628,9.730035781860352,0.07182604819536209
1728845408340325600,12.37432568359375,1.3311761617660522,9.718064308166504,0.08619125932455063
1728845408350304800,12.3843046875,1.3694833517074585,9.72285270690918,0.07900865375995636
1728845408360314600,12.394314697265624,1.4053963422775269,9.720458984375,0.05985504388809204
1728845408370324200,12.40432421875,1.4293384552001953,9.725247383117676,0.05506663769483566
1728845408380303600,12.4143037109375,1.4389152526855469,9.734824180603027,0.035913024097681046
1728845408390282800,12.42428271484375,1.4293384552001953,9.75637149810791,0.031124621629714966
1728845408400292600,12.434292724609374,1.403002142906189,9.75637149810791,0.023942016065120697
1728845408410302500,12.444302490234374,1.3646949529647827,9.75637149810791,0.031124621629714966
1728845408420281600,12.454281494140625,1.3215993642807007,9.739612579345703,0.031124621629714966
1728845408430291500,12.46429150390625,1.3000515699386597,9.727641105651855,0.05985504388809204
1728845408440301000,12.474301025390625,1.3096283674240112,9.715670585632324,0.06464344263076782
1728845408450311000,12.484310791015625,1.335964560508728,9.715670585632324,0.07900865375995636
1728845408460290000,12.4942900390625,1.3694833517074585,9.730035781860352,0.08379705995321274
1728845408470300000,12.5042998046875,1.403002142906189,9.725247383117676,0.07182604819536209
1728845408480309800,12.514309814453124,1.436521053314209,9.732429504394531,0.05027823522686958
1728845408490319400,12.5243193359375,1.4437036514282227,9.749189376831055,0.043095629662275314
1728845408500298800,12.534298828125,1.4101848602294922,9.746794700622559,0.031124621629714966
1728845408510278000,12.54427783203125,1.6136919260025024,9.734824180603027,0.033518824726343155
1728845408520287700,12.554287841796874,1.414973258972168,9.746794700622559,0.043095629662275314
1728845408530297300,12.56429736328125,1.3694833517074585,9.730035781860352,0.05506663769483566
1728845408540276700,12.57427685546875,1.3407529592514038,9.732429504394531,0.07422025501728058
1728845408550255900,12.584255859375,1.3527239561080933,9.72285270690918,0.07900865375995636
1728845408560235300,12.5942353515625,1.3623007535934448,9.715670585632324,0.07422025501728058
1728845408570244900,12.604244873046875,1.4269442558288574,9.730035781860352,0.06464344263076782
1728845408580254700,12.614254638671875,1.4245500564575195,9.737217903137207,0.047884032130241394
1728845408590264600,12.6242646484375,1.4532804489135742,9.742006301879883,0.047884032130241394
1728845408600243700,12.63424365234375,1.41257905960083,9.75397777557373,0.023942016065120697
1728845408610223000,12.64422314453125,1.3910311460494995,9.75637149810791,0.026336219161748886
1728845408620232700,12.654232666015625,1.357512354850769,9.751583099365234,0.023942016065120697
1728845408630212000,12.664212158203124,1.3287819623947144,9.737217903137207,0.035913024097681046
1728845408640221700,12.6742216796875,1.3263877630233765,9.727641105651855,0.05985504388809204
1728845408650201000,12.684201171875,1.3215993642807007,9.730035781860352,0.07422025501728058
1728845408660180200,12.69418017578125,1.3215993642807007,9.727641105651855,0.08140286058187485
1728845408670190000,12.704190185546874,1.414973258972168,9.739612579345703,0.07182604819536209
1728845408680199700,12.71419970703125,1.4437036514282227,9.739612579345703,0.06224924325942993
1728845408690209500,12.72420947265625,1.4269442558288574,9.730035781860352,0.038307227194309235
1728845408700189000,12.73418896484375,1.4053963422775269,9.737217903137207,0.035913024097681046
1728845408710198500,12.744198486328125,1.3694833517074585,9.763554573059082,0.031124621629714966
1728845408720178000,12.754177978515624,1.3431471586227417,9.761159896850586,0.040701430290937424
1728845408730157000,12.764156982421875,1.3263877630233765,9.749189376831055,0.040701430290937424
1728845408740167000,12.7741669921875,1.3000515699386597,9.732429504394531,0.05985504388809204
1728845408750146000,12.78414599609375,1.3072341680526733,9.708487510681152,0.07661445438861847
1728845408760125400,12.79412548828125,1.3335703611373901,9.725247383117676,0.08619125932455063
1728845408770135000,12.804135009765625,1.3718775510787964,9.727641105651855,0.06703764945268631
1728845408780145000,12.814144775390625,1.403002142906189,9.742006301879883,0.07182604819536209
1728845408790124000,12.8241240234375,1.434126853942871,9.739612579345703,0.05506663769483566
1728845408800103400,12.834103515625,1.4437036514282227,9.739612579345703,0.033518824726343155
1728845408810113000,12.844113037109375,1.4245500564575195,9.746794700622559,0.023942016065120697
1728845408820123000,12.854122802734375,1.3982137441635132,9.742006301879883,0.019153613597154617
1728845408830132700,12.8641328125,1.335964560508728,9.737217903137207,0.035913024097681046
1728845408840111900,12.87411181640625,1.2952631711959839,9.72285270690918,0.06224924325942993
