time,seconds_elapsed,z,y,x
1728747802754558200,311.9375581054687,3.4787750244140625,8.379706382751465,-0.5674257874488831
1728747802764568000,311.9475681152344,3.095702886581421,8.56884765625,-0.3495534360408783
1728747802774577700,311.9575776367187,2.8874073028564453,8.671798706054688,-0.7230489253997803
1728747802784557000,311.96755712890626,3.1316158771514893,8.959102630615234,-1.2114660739898682
1728747802794536200,311.9775361328125,3.270479440689087,9.653421401977539,-1.4101848602294922
1728747802804515300,311.98751538085935,3.2106244564056396,10.314221382141113,-1.4628572463989258
1728747802814525200,311.99752514648435,3.1004912853240967,10.764330863952637,-1.3551181554794312
1728747802824504600,312.0075046386719,2.6575639247894287,11.101913452148438,-1.015141487121582
1728747802834514200,312.0175141601562,1.9584569931030273,11.092336654663086,-0.6703764796257019
1728747802844524000,312.0275239257812,2.516305923461914,10.979808807373047,-0.629675030708313
1728747802854503200,312.0375031738281,4.065354347229004,11.21444034576416,-0.6129156351089478
1728747802864482600,312.04748266601564,5.25527286529541,11.590330123901367,-0.5817909836769104
1728747802874461700,312.05746166992185,6.0621185302734375,11.868058204650879,-0.5434837937355042
1728747802884471600,312.06747143554685,6.967126846313477,12.263101577758789,-0.17238251864910126
1728747802894450700,312.0774506835937,7.848193168640137,12.593501091003418,0.22744916379451752
1728747802904399400,312.0873994140625,7.955932140350342,12.6365966796875,0.8355764150619507
1728747802914409200,312.0974091796875,7.666234016418457,12.270283699035645,1.4484920501708984
1728747802924388600,312.107388671875,7.594407558441162,11.63342571258545,1.944091796875
1728747802934398200,312.11739819335935,7.627926826477051,10.723628997802734,2.209848165512085
1728747802944377600,312.1273776855469,7.558494567871094,9.813833236694336,2.43011474609375
1728747802954387200,312.1373872070312,7.3885064125061035,8.810662269592285,2.542642116546631
1728747802964397000,312.1473969726562,7.943961143493652,7.7763671875,2.382230758666992
1728747802974376200,312.1573762207031,8.655038833618164,7.216124057769775,2.0015525817871094
1728747802984355600,312.16735546875,8.585607528686523,6.619967937469482,1.6759412288665771
1728747802994334700,312.17733471679685,8.092401504516602,6.1985883712768555,1.525106430053711
1728747803004344600,312.18734448242185,7.110779285430908,5.765237808227539,1.2090718746185303
1728747803014354400,312.1973544921875,4.410119533538818,5.74129581451416,0.6488286852836609
1728747803024364000,312.20736401367185,2.2194249629974365,6.112396717071533,0.8020575642585754
1728747803034374000,312.21737377929685,2.873042106628418,5.813121795654297,0.7709329724311829
1728747803044383500,312.22738354492185,3.3446998596191406,5.925649166107178,0.7757213711738586
1728747803054363000,312.2373627929687,3.864241600036621,5.810727596282959,0.47644615173339844
1728747803064342000,312.2473420410156,4.367023944854736,5.849034786224365,0.38067805767059326
1728747803074321400,312.2573212890625,4.853046894073486,5.856217384338379,0.42377370595932007
1728747803084331000,312.2673310546875,5.430049419403076,6.007051944732666,0.5315127968788147
1728747803094310400,312.27731030273435,5.920860767364502,6.066906929016113,0.5027823448181152
1728747803104259000,312.2872590332031,6.943184852600098,6.071695327758789,1.0462661981582642
1728747803114269000,312.29726904296876,9.344569206237793,6.064512729644775,1.522712230682373
1728747803124248000,312.307248046875,12.45463752746582,5.899312973022461,1.6735470294952393
1728747803134258000,312.3172578125,11.892000198364258,6.028599739074707,1.3886369466781616
1728747803144237000,312.32723706054685,9.768342971801758,6.016628742218018,1.1659762859344482
1728747803154247000,312.33724682617185,7.5968017578125,6.00226354598999,1.1827356815338135
1728747803164226000,312.3472260742187,6.143521785736084,5.990292549133301,1.53707754611969
1728747803174236000,312.3572358398437,5.178658485412598,5.9974751472473145,1.821987509727478
1728747803184215000,312.3672150878906,4.707000732421875,5.6455278396606445,1.9584569931030273
1728747803194225000,312.3772248535156,4.888959884643555,5.195417881011963,1.867477297782898
1728747803204234800,312.38723486328126,4.896142482757568,4.7189717292785645,1.9488801956176758
1728747803214244400,312.3972443847656,5.355829238891602,4.247313976287842,1.9129672050476074
1728747803224223700,312.4072236328125,6.078877925872803,4.110844135284424,2.365471363067627
1728747803234233300,312.4172333984375,10.450690269470215,3.995922565460205,2.451662540435791
1728747803244212700,312.42721264648435,10.261548042297363,3.1938650608062744,2.6360161304473877
1728747803254191900,312.4371918945312,9.835380554199219,2.738966703414917,2.5737667083740234
1728747803264171300,312.4471711425781,9.263166427612305,2.056619167327881,2.427720546722412
1728747803274180900,312.4571809082031,12.45463752746582,1.2330138683319092,1.9776105880737305
1728747803284160300,312.46716015625,14.592658996582031,1.161187767982483,1.6663644313812256
1728747803294170000,312.47717016601564,13.737929344177246,1.8698714971542358,1.8291701078414917
1728747803304179700,312.4871796875,9.320627212524414,2.4803929328918457,1.7142484188079834
1728747803314159000,312.4971591796875,7.132327079772949,2.7892448902130127,1.5658079385757446
1728747803324138200,312.5071381835937,7.074865818023682,2.96162748336792,0.646434485912323
1728747803334117400,312.5171174316406,8.53532886505127,3.2345664501190186,-0.9600749015808105
1728747803344127200,312.5271271972656,9.368511199951172,3.914519786834717,-2.1523873805999756
1728747803354137000,312.53713720703126,8.999804496765137,4.843470096588135,-2.0231003761291504
1728747803364146700,312.5471467285156,5.705382823944092,4.932055473327637,-0.9145850539207458
1728747803374126000,312.5571259765625,4.144362926483154,4.855441093444824,0.38067805767059326
1728747803384105200,312.56710522460935,6.588842868804932,4.81473970413208,1.3910311460494995
1728747803394115000,312.57711499023435,8.20492935180664,4.649539470672607,2.693476915359497
1728747803404125000,312.587125,9.928754806518555,4.278438568115234,2.9161376953125
1728747803414104000,312.5971040039062,10.680533409118652,3.73016619682312,2.363077163696289
1728747803424052700,312.607052734375,11.08754825592041,3.5218706130981445,1.6519991159439087
1728747803434062600,312.6170625,11.346121788024902,3.9432501792907715,1.4317326545715332
1728747803444072400,312.62707250976564,10.57040023803711,4.6471452713012695,2.4827871322631836
1728747803454082000,312.63708203125,9.801861763000488,5.037400245666504,3.2609026432037354
1728747803464061400,312.6470615234375,9.651026725769043,4.989516258239746,3.758896589279175
1728747803474071000,312.65707104492185,9.746794700622559,4.896142482757568,3.869029998779297
1728747803484050400,312.6670505371094,10.398017883300781,4.659116744995117,3.8810009956359863
1728747803494029600,312.6770295410156,10.8505220413208,4.242525577545166,4.027047157287598
1728747803504039400,312.6870393066406,11.05642318725586,4.02465295791626,4.213795185089111
1728747803514018600,312.6970185546875,10.72602367401123,3.9456443786621094,4.309563159942627
1728747803523967200,312.7069672851562,10.445901870727539,4.177882194519043,4.5825018882751465
1728747803533977000,312.7169770507812,10.225635528564453,4.426878929138184,4.793191909790039
1728747803543956500,312.72695654296876,10.307038307189941,4.7836151123046875,4.982333660125732
1728747803553966000,312.7369660644531,10.014945983886719,5.080495834350586,5.195417881011963
1728747803563945500,312.74694555664064,9.399636268615723,5.171475887298584,4.953603267669678
1728747803573955000,312.756955078125,8.42040729522705,5.214571475982666,4.592078685760498
1728747803583934500,312.7669345703125,7.65186882019043,5.078101634979248,4.309563159942627
1728747803593944000,312.77694409179685,7.182605266571045,5.04218864440918,4.199429988861084
1728747803603923500,312.7869233398437,6.94079065322876,4.975151062011719,4.062960147857666
1728747803613933000,312.7969331054687,7.208941459655762,4.7405195236206055,3.7277719974517822
1728747803623912400,312.8069123535156,7.343016624450684,4.400542736053467,3.184288263320923
1728747803633891600,312.8168916015625,7.726089000701904,4.077325344085693,2.7461493015289307
1728747803643901400,312.8269013671875,7.7883381843566895,3.8331170082092285,2.6623523235321045
1728747803653880600,312.83688061523435,7.383718013763428,3.825934410095215,2.6886885166168213
1728747803663860000,312.8468598632812,7.5848307609558105,3.7397429943084717,2.6839001178741455
1728747803673839000,312.8568391113281,7.850587368011475,3.7158010005950928,2.425326347351074
1728747803683849000,312.8668488769531,7.738059997558594,3.8115692138671875,2.0374655723571777
1728747803693828000,312.876828125,7.395689010620117,3.7660791873931885,1.7094600200653076
1728747803703807500,312.88680737304685,7.311892032623291,3.603273630142212,1.3048399686813354
1728747803713817000,312.89681713867185,7.137115478515625,3.773261785507202,1.0893617868423462
1728747803723827000,312.90682690429685,6.933608055114746,3.957615375518799,0.8307880163192749
1728747803733806300,312.9168063964844,6.636727333068848,3.9600095748901367,0.49320554733276367
1728747803743785500,312.9267854003906,6.543353080749512,3.9264907836914062,0.2585737705230713
1728747803753795300,312.93679541015626,6.375759124755859,4.094084739685059,0.10295066982507706
1728747803763805000,312.9468049316406,6.519411087036133,4.355052947998047,0.12449848651885986
1728747803773784300,312.95678442382814,7.089231014251709,4.412513732910156,-0.2082955539226532
1728747803783763500,312.96676342773435,7.536946773529053,4.692635536193848,-0.3998316824436188
1728747803793773300,312.97677319335935,7.6782050132751465,4.857835292816162,-0.9193734526634216
1728747803803752400,312.9867524414062,8.480262756347656,4.687847137451172,-1.6424223184585571
1728747803813762300,312.9967622070312,8.71728801727295,4.702212333679199,-2.250549554824829
1728747803823741400,313.0067414550781,8.374917984008789,5.173870086669922,-2.3032219409942627
1728747803833720800,313.01672094726564,7.836222171783447,5.348646640777588,-2.161964178085327
1728747803843730400,313.02673046875,7.283161640167236,5.403713226318359,-1.9967641830444336
1728747803853740300,313.036740234375,6.921637058258057,5.463568210601807,-1.9704279899597168
1728747803863719400,313.04671948242185,7.110779285430908,5.612008571624756,-1.7836803197860718
1728747803873729300,313.05672924804685,6.938396453857422,5.614402770996094,-2.0422539710998535
1728747803883708700,313.0667087402344,6.641515731811523,5.643133640289307,-2.1978771686553955
1728747803893718300,313.0767182617187,6.435614109039307,5.849034786224365,-2.0901381969451904
1728747803903697700,313.08669775390626,7.000645637512207,5.966350555419922,-2.652775526046753
1728747803913676800,313.0966767578125,7.395689010620117,6.023811340332031,-3.423708438873291
1728747803923656200,313.10665625,7.0317702293396,5.940014362335205,-4.003105163574219
1728747803933665800,313.11666577148435,7.184999465942383,5.884947776794434,-3.9839515686035156
1728747803943645200,313.1266452636719,6.7708024978637695,6.110002517700195,-3.7612907886505127
1728747803953654800,313.1366547851562,6.72531270980835,6.265625953674316,-3.4524388313293457
1728747803963664600,313.1466645507812,6.560112476348877,6.023811340332031,-3.3686418533325195
1728747803973643800,313.1566437988281,6.294356346130371,5.803544998168945,-3.375824451446533
1728747803983623200,313.166623046875,6.682217121124268,5.796362400054932,-3.4356794357299805
1728747803993632800,313.1766328125,7.271190643310547,5.614402770996094,-3.6966474056243896
1728747804003612200,313.18661206054685,7.33583402633667,5.295974254608154,-4.153939723968506
1728747804013622000,313.1966220703125,7.046135425567627,5.0685248374938965,-4.577713489532471
1728747804023601200,313.2066010742187,6.567295074462891,5.049371242523193,-4.857835292816162
1728747804033611000,313.2166110839844,7.053318023681641,4.819528102874756,-5.817910194396973
1728747804043620600,313.2266206054687,7.608773231506348,4.637568473815918,-6.821080684661865
1728747804053600000,313.23660009765626,8.307879447937012,4.390965938568115,-7.781155586242676
1728747804063579100,313.2465791015625,8.875306129455566,4.175487995147705,-8.35336971282959
1728747804073589000,313.25658911132814,9.241618156433105,4.357447147369385,-8.501810073852539
1728747804083568000,313.26656811523435,9.351752281188965,4.1395745277404785,-8.4108304977417
1728747804093578000,313.27657788085935,9.404424667358398,3.5410242080688477,-8.358158111572266
1728747804103557000,313.2865571289062,9.29189682006836,2.980781078338623,-8.379706382751465
1728747804113567000,313.2965668945312,8.762778282165527,2.6192567348480225,-8.10437297821045
1728747804123546000,313.3065461425781,7.886500358581543,2.5258827209472656,-7.838616371154785
1728747804133556000,313.3165559082031,7.539340972900391,2.5737667083740234,-7.536946773529053
1728747804143535000,313.32653515625,7.275979042053223,2.477998733520508,-7.33583402633667
1728747804153545000,313.336544921875,6.871358871459961,2.4899697303771973,-6.909666061401367
1728747804163524400,313.3465244140625,6.66785192489624,2.628833532333374,-6.5265936851501465
1728747804173534000,313.35653393554685,6.900089263916016,2.96162748336792,-6.426037311553955
1728747804183543800,313.36654370117185,6.44279670715332,3.2632968425750732,-6.631938934326172
1728747804193523000,313.3765229492187,6.66785192489624,3.098097085952759,-7.026981830596924
1728747804203472000,313.38647192382814,7.139509677886963,2.786850690841675,-7.321468830108643
1728747804213481500,313.3964814453125,6.938396453857422,2.691082715988159,-7.570465564727783
1728747804223460900,313.4064609375,6.584054470062256,2.8658595085144043,-7.556100368499756
1728747804233440000,313.4164399414062,7.407660007476807,2.6360161304473877,-7.65186882019043
1728747804243388700,313.426388671875,7.295132637023926,2.1930887699127197,-7.750030994415283
1728747804253398500,313.4363984375,6.1770405769348145,2.1547815799713135,-7.436390399932861
1728747804263408400,313.44640844726564,5.398924827575684,2.1308395862579346,-7.196970462799072
1728747804273387500,313.45638745117185,5.30076265335083,2.0374655723571777,-6.873753070831299
1728747804283336200,313.4663361816406,4.786009311676025,2.1332337856292725,-6.655880928039551
1728747804293346000,313.4763459472656,4.347870349884033,1.9393033981323242,-6.782773494720459
1728747804303356000,313.48635595703126,4.5825018882751465,1.3718775510787964,-6.983886241912842
1728747804313365500,313.4963654785156,4.716577529907227,1.4269442558288574,-7.003039836883545
1728747804323345000,313.50634497070314,5.57370138168335,1.7046716213226318,-6.9240312576293945
1728747804333354500,313.5163544921875,5.394136428833008,1.802833914756775,-7.12035608291626
1728747804343364400,313.5263642578125,5.238513469696045,2.032677173614502,-7.137115478515625
1728747804353343500,313.53634350585935,4.982333660125732,2.161964178085327,-7.268796443939209
1728747804363353300,313.54635327148435,4.93923807144165,1.764526605606079,-7.829039573669434
1728747804373363200,313.55636328125,5.4013190269470215,1.601720929145813,-8.02536392211914
1728747804383342300,313.5663422851562,5.408501625061035,1.8363527059555054,-8.003816604614258
1728747804393321700,313.57632177734376,5.343858242034912,1.6424223184585571,-7.929595947265625
1728747804403270400,313.5862705078125,5.169081687927246,1.3072341680526733,-7.817068576812744
1728747804413280000,313.59628002929685,4.683058738708496,1.3335703611373901,-7.886500358581543
1728747804423289900,313.60628979492185,3.928884983062744,1.2880805730819702,-8.185775756835938
1728747804433269000,313.6162690429687,3.797203779220581,1.0773907899856567,-8.44195556640625
1728747804443218000,313.62621801757814,3.9240965843200684,1.036689281463623,-8.669404029846191
1728747804453227500,313.6362275390625,3.4404678344726562,1.015141487121582,-8.736441612243652
1728747804463237400,313.6462373046875,3.270479440689087,1.0055646896362305,-8.688557624816895
1728747804473216500,313.65621655273435,3.2321722507476807,1.1755530834197998,-8.621520042419434
1728747804483165400,313.66616552734376,3.1244332790374756,1.5753847360610962,-8.556877136230469
1728747804493175000,313.6761750488281,3.0310592651367188,1.1994950771331787,-8.916007041931152
1728747804503185000,313.6861848144531,3.066972494125366,1.0007762908935547,-9.20091724395752
1728747804513194800,313.69619482421876,3.0406360626220703,1.0630255937576294,-9.224859237670898
1728747804523174000,313.706173828125,2.829946517944336,0.9241618514060974,-9.169792175292969
1728747804533183700,313.71618383789064,2.8131868839263916,0.9193734526634216,-9.102754592895508
1728747804543163000,313.72616284179685,2.6599581241607666,0.9026140570640564,-9.133879661560059
1728747804553172700,313.7361728515625,2.2242133617401123,0.608127236366272,-9.394847869873047
1728747804563152000,313.7461518554687,2.1499931812286377,0.3902548849582672,-9.62947940826416
1728747804573161700,313.7561616210937,2.3295583724975586,0.3998316824436188,-9.818621635437012
1728747804583140900,313.7661408691406,2.1523873805999756,0.38546648621559143,-10.101137161254883
1728747804593150700,313.7761506347656,2.188300371170044,0.17477671802043915,-10.424354553222656
1728747804603129900,313.7861298828125,2.188300371170044,0.11013327538967133,-10.642226219177246
1728747804613139700,313.7961396484375,2.233790159225464,0.14844051003456116,-10.649409294128418
1728747804623149600,313.80614965820314,2.1308395862579346,0.2801215946674347,-10.591948509216309
1728747804633159200,313.8161591796875,2.161964178085327,0.181959331035614,-10.685321807861328
1728747804643138600,313.826138671875,1.9345149993896484,-0.17956513166427612,-11.027692794799805
1728747804653148200,313.83614819335935,2.10210919380188,-0.44771572947502136,-11.21444034576416
1728747804663097000,313.84609716796876,2.0446481704711914,-0.3926490843296051,-11.137825965881348
1728747804673106700,313.8561066894531,1.680729627609253,-0.44771572947502136,-11.35809326171875
1728747804683116500,313.8661164550781,1.7142484188079834,-0.47884035110473633,-11.504138946533203
1728747804693126400,313.87612646484376,1.6687586307525635,-0.13407529890537262,-11.499350547790527
1728747804703105500,313.88610546875,1.4245500564575195,0.07900865375995636,-11.616666793823242
1728747804713115400,313.89611547851564,1.4101848602294922,0.26575639843940735,-11.473014831542969
1728747804723094500,313.90609448242185,1.644816517829895,0.40462008118629456,-10.982203483581543
1728747804733104400,313.9161044921875,1.216254472732544,0.27054479718208313,-10.371682167053223
1728747804743114000,313.92611401367185,1.048660397529602,0.14844051003456116,-9.739612579345703
1728747804753093400,313.9360932617187,1.115697979927063,0.10773907601833344,-9.284713745117188
1728747804763072500,313.9460725097656,0.2777273952960968,-0.09576806426048279,-9.131484985351562
1728747804773082400,313.9560822753906,-0.09576806426048279,0.13168109953403473,-8.7268648147583
1728747804783061500,313.9660615234375,-0.021547814831137657,0.4141969084739685,-8.540117263793945
1728747804793041000,313.976041015625,-1.01753568649292,0.23702596127986908,-8.762778282165527
1728747804803050500,313.98605053710935,-0.8667010068893433,-0.016759412363171577,-8.848969459533691
1728747804813060400,313.99606030273435,-0.8427590131759644,0.15083470940589905,-8.81784439086914
1728747804823070200,314.0060703125,-0.9217676520347595,0.6416460275650024,-8.954314231872559
1728747804833049300,314.0160493164062,-1.1875240802764893,0.6871358752250671,-9.366117477416992
1728747804843028700,314.02602880859376,-0.40701428055763245,0.6919242739677429,-9.66539192199707
1728747804853038300,314.0360383300781,-0.2849099934101105,0.7805097699165344,-9.880870819091797
1728747804863017700,314.04601782226564,-0.38067805767059326,0.9457096457481384,-9.852140426635742
1728747804873027300,314.05602734375,-0.20111294090747833,1.3072341680526733,-9.509769439697266
1728747804883006700,314.0660068359375,-0.8547300100326538,1.335964560508728,-9.294290542602539
1728747804893016300,314.07601635742185,-0.9983820915222168,1.338358759880066,-9.045293807983398
1728747804903026200,314.08602612304685,-1.0462661981582642,1.580173134803772,-8.83939266204834
1728747804913036000,314.0960361328125,-1.3670891523361206,1.5945383310317993,-8.738836288452148
1728747804923045600,314.10604565429685,-1.2042834758758545,1.8531121015548706,-8.729259490966797
1728747804933025000,314.1160249023437,-0.586579442024231,2.0805611610412598,-8.633491516113281
1728747804943004200,314.1260041503906,-0.4118026793003082,1.479616641998291,-8.683769226074219
1728747804953014000,314.1360139160156,-1.4245500564575195,1.5083470344543457,-8.803479194641113
1728747804962993200,314.1459931640625,-0.6488286852836609,1.8531121015548706,-8.995016098022461
1728747804973003000,314.1560029296875,1.8986018896102905,1.2737152576446533,-9.131484985351562
1728747804983012900,314.16601293945314,1.5682021379470825,-0.5363011956214905,-9.404424667358398
1728747804992992000,314.17599194335935,-0.8307880163192749,0.9217676520347595,-8.549694061279297
1728747805002971100,314.1859711914062,-1.3886369466781616,1.6543933153152466,-8.042123794555664
1728747805012981000,314.1959809570312,-1.625662922859192,1.2761094570159912,-8.307879447937012
1728747805022929700,314.2059296875,-1.9536685943603516,1.745373010635376,-8.571242332458496
1728747805032939500,314.215939453125,-1.6950948238372803,1.2114660739898682,-8.87291145324707
1728747805042949400,314.22594946289064,-2.075772762298584,0.22505496442317963,-8.619126319885254
1728747805052959000,314.235958984375,-3.162740468978882,-0.22744916379451752,-8.08043098449707
1728747805062938400,314.2459384765625,-3.3638534545898438,0.363918662071228,-7.608773231506348
1728747805072917500,314.2559174804687,-3.0310592651367188,1.2282254695892334,-7.419631004333496
1728747805082927400,314.2659272460937,-2.6431987285614014,2.0254945755004883,-7.441178798675537
1728747805092906500,314.2759064941406,-2.0039467811584473,2.403778553009033,-7.91283655166626
1728747805102916400,314.2859162597656,-1.9488801956176758,2.099714994430542,-8.688557624816895
1728747805112926200,314.29592626953126,-2.4229321479797363,1.4077905416488647,-9.552865028381348
1728747805122935800,314.3059357910156,-4.005499362945557,0.8786720037460327,-10.096348762512207
1728747805132915200,314.31591528320314,-5.183446884155273,0.6488286852836609,-10.196905136108398
1728747805142894300,314.32589428710935,-5.686229228973389,0.8331822156906128,-10.041281700134277
1728747805152873700,314.3358737792969,-5.583278179168701,1.0438719987869263,-9.971850395202637
1728747805162883300,314.3458833007812,-5.78678560256958,1.3431471586227417,-10.103530883789062
1728747805172862700,314.35586279296876,-6.110002517700195,1.4700398445129395,-10.261548042297363
1728747805182841900,314.365841796875,-6.8162922859191895,1.139639973640442,-10.644620895385742
1728747805192821000,314.37582104492185,-8.662221908569336,0.3878606855869293,-11.05642318725586
1728747805202800400,314.3858002929687,-9.68933391571045,0.09576806426048279,-10.723628997802734
1728747805212779500,314.3957795410156,-10.311826705932617,-0.10773907601833344,-10.20648193359375
1728747805222789400,314.4057893066406,-10.81700325012207,-0.6344634294509888,-9.493009567260742
1728747805232768500,314.4157685546875,-11.08754825592041,-0.9959878921508789,-8.631096839904785
1728747805242778400,314.4257783203125,-11.32457447052002,-1.3742717504501343,-8.183381080627441
1728747805252757800,314.4357578125,-11.233593940734863,-1.460463047027588,-7.692570209503174
1728747805262767400,314.44576733398435,-10.994174003601074,-1.5753847360610962,-7.398083209991455
1728747805272777200,314.45577709960935,-10.663774490356445,-1.158793568611145,-7.163451671600342
1728747805282786800,314.46578686523435,-10.778696060180664,-0.9816226959228516,-7.129932880401611
1728747805292796700,314.47579663085935,-10.33098030090332,0.10055647045373917,-6.698976516723633
1728747805302806500,314.485806640625,-9.708487510681152,0.9457096457481384,-5.688623428344727
1728747805312785700,314.4957856445312,-8.96389102935791,1.5107412338256836,-4.599261283874512
1728747805322765000,314.50576513671876,-8.71489429473877,2.011129379272461,-3.7445313930511475
1728747805332774700,314.5157746582031,-8.731653213500977,2.4803929328918457,-3.0621838569641113
1728747805342754000,314.52575415039064,-8.202534675598145,2.52109432220459,-2.82515811920166
1728747805352763600,314.535763671875,-7.082048416137695,1.9488801956176758,-3.0621838569641113
1728747805362743000,314.54574291992185,-6.253654956817627,1.2976573705673218,-3.134010076522827
1728747805372752600,314.55575268554685,-6.155492782592773,0.5746083855628967,-3.069366693496704
1728747805382762500,314.56576245117185,-5.954379558563232,-0.22744916379451752,-3.184288263320923
1728747805392742000,314.5757419433594,-5.70777702331543,-0.2561795711517334,-3.2752678394317627
1728747805402721000,314.5857209472656,-6.150704383850098,-0.7182605266571045,-3.8139634132385254
1728747805412700200,314.5957001953125,-6.777985095977783,-1.0893617868423462,-4.747702121734619
1728747805422710000,314.6057099609375,-7.637503623962402,-0.8547300100326538,-5.427655220031738
1728747805432720000,314.61571997070314,-8.281543731689453,-0.5793967843055725,-5.990292549133301
1728747805442729500,314.6257294921875,-8.580819129943848,-0.1604115068912506,-6.174646377563477
1728747805452739300,314.6357392578125,-8.456320762634277,0.6607996821403503,-5.954379558563232
1728747805462688000,314.6456879882812,-8.813055992126465,1.3096283674240112,-6.042964935302734
1728747805472697900,314.6556977539062,-8.312667846679688,1.1971008777618408,-6.603208065032959
1728747805482707700,314.6657077636719,-6.6630635261535645,1.070208191871643,-6.675034523010254
1728747805492686800,314.6756867675781,-5.702988624572754,1.3718775510787964,-6.809109687805176
1728747805502666000,314.685666015625,-4.656722068786621,1.479616641998291,-6.9240312576293945
1728747805512675800,314.69567578125,-4.371812343597412,1.5179238319396973,-6.964732646942139
1728747805522655000,314.70565502929685,-4.491522312164307,1.7836803197860718,-6.739677906036377
1728747805532664800,314.71566479492185,-5.178658485412598,2.3295583724975586,-6.0190229415893555
1728747805542674700,314.7256748046875,-7.144298076629639,3.0526070594787598,-4.2975921630859375
1728747805552653800,314.7356538085937,-8.655038833618164,3.641580820083618,-2.123656988143921
1728747805562633200,314.74563330078126,-9.399636268615723,4.58968448638916,0.629675030708313
1728747805572612400,314.7556123046875,-10.366893768310547,5.901707172393799,2.513911724090576
1728747805582622200,314.76562231445314,-9.856928825378418,7.953537940979004,5.140350818634033
1728747805592631800,314.7756318359375,-7.7763671875,7.800309181213379,3.797203779220581
1728747805602611200,314.78561108398435,-7.005434036254883,4.891354084014893,-0.9050082564353943
1728747805612620800,314.79562084960935,-7.094019412994385,2.406172752380371,-3.7205893993377686
1728747805622630700,314.80563061523435,-7.5968017578125,1.6376339197158813,-3.6176388263702393
1728747805632610000,314.8156101074219,-8.391676902770996,1.721431016921997,-2.58813214302063
1728747805642589200,314.8255891113281,-9.2033109664917,2.233790159225464,-1.900996208190918
1728747805652599000,314.83559912109376,-10.445901870727539,2.626439332962036,-1.6136919260025024
1728747805662608600,314.8456086425781,-11.652579307556152,2.8993782997131348,-1.8076223134994507
1728747805672588000,314.85558813476564,-12.287043571472168,3.023876667022705,-1.9560627937316895
1728747805682597600,314.86559765625,-12.315773963928223,3.028665065765381,-1.5610195398330688
1728747805692577000,314.87557690429685,-11.870451927185059,2.7533318996429443,-1.2545616626739502
1728747805702556200,314.8855561523437,-10.931924819946289,2.5450363159179688,-0.9648633003234863
1728747805712535600,314.89553564453126,-9.84256362915039,2.911349296569824,-0.5841852426528931
1728747805722545200,314.9055451660156,-8.736441612243652,3.5649664402008057,-0.31842881441116333
1728747805732555000,314.9155549316406,-7.0126166343688965,4.055777549743652,0.009576806798577309
1728747805742534100,314.9255341796875,-5.7772088050842285,4.2760443687438965,0.3998316824436188
1728747805752513500,314.93551342773435,-5.114014625549316,4.441244125366211,0.5267243981361389
1728747805762492700,314.9454926757812,-4.929661273956299,4.398148536682129,0.43335050344467163
1728747805772502500,314.9555024414062,-5.233725070953369,3.5913026332855225,0.23702596127986908
1728747805782481700,314.9654816894531,-5.748478412628174,2.911349296569824,-0.2082955539226532
1728747805792491500,314.9754914550781,-6.478709697723389,2.698265314102173,-0.3711012601852417
1728747805802470700,314.985470703125,-8.042123794555664,2.4875755310058594,-0.5195417404174805
1728747805812480500,314.99548046875,-8.98543930053711,2.427720546722412,-0.4596867263317108
1728747805822490400,315.00549047851564,-9.224859237670898,3.1938650608062744,-0.2585737705230713
1728747805832500000,315.0155,-9.763554573059082,4.764461517333984,-0.43095630407333374
1728747805842509800,315.025509765625,-10.520122528076172,5.521028995513916,-0.42616790533065796
1728747805852519700,315.03551977539064,-11.477803230285645,4.355052947998047,-0.16519992053508759
1728747805862529300,315.045529296875,-11.987768173217773,3.1316158771514893,-0.26815059781074524
1728747805872539100,315.0555390625,-11.75792407989502,3.4979286193847656,-0.395043283700943
1728747805882549000,315.06554907226564,-12.107478141784668,4.750096321105957,-0.2801215946674347
1728747805892528000,315.07552807617185,-12.373234748840332,5.904101371765137,-0.4884171485900879
1728747805902507500,315.0855075683594,-12.70602798461914,7.194576263427734,-0.8068459630012512
1728747805912517000,315.0955170898437,-12.433089256286621,7.453149795532227,-0.9648633003234863
1728747805922496500,315.10549658203126,-12.229581832885742,6.897695064544678,-1.3479355573654175
1728747805932506000,315.1155061035156,-11.78904914855957,6.354211330413818,-1.577778935432434
1728747805942485500,315.12548559570314,-10.47702693939209,5.540182590484619,-1.7597382068634033
1728747805952495000,315.1354951171875,-9.246406555175781,4.795586109161377,-1.6160861253738403
1728747805962505000,315.1455048828125,-8.401253700256348,4.3861775398254395,-1.316810965538025
1728747805972484000,315.15548413085935,-7.977479934692383,4.2975921630859375,-0.4908113479614258
1728747805982463500,315.1654633789062,-8.379706382751465,3.9839515686035156,0.2106897532939911
1728747805992442600,315.1754426269531,-9.294290542602539,3.77565598487854,0.9816226959228516
1728747806002422000,315.18542211914064,-10.268731117248535,3.464409828186035,1.7166426181793213
1728747806012431600,315.195431640625,-10.886435508728027,3.004723072052002,2.31758713722229
1728747806022411000,315.20541088867185,-11.461043357849121,2.52109432220459,2.7054479122161865
1728747806032420600,315.21542065429685,-11.963826179504395,2.140416383743286,3.0095114707946777
1728747806042400000,315.2253999023437,-11.745953559875488,1.577778935432434,3.155557870864868
1728747806052409900,315.2354099121094,-11.209651947021484,1.0606313943862915,3.3279404640197754
1728747806062419500,315.2454194335937,-10.20648193359375,0.4692635238170624,3.8091750144958496
1728747806072429300,315.2554291992187,-9.35893440246582,0.1364694982767105,4.398148536682129
1728747806082408400,315.2654084472656,-9.14585018157959,0.15562310814857483,5.080495834350586
1728747806092418300,315.2754182128906,-8.705317497253418,0.10295066982507706,5.640739440917969
1728747806102397400,315.2853974609375,-8.022970199584961,-0.44532153010368347,5.875370979309082
1728747806112407300,315.2954072265625,-7.931990146636963,-0.5889736413955688,5.896918773651123
1728747806122386400,315.30538647460935,-6.18182897567749,0.10295066982507706,5.513846397399902
1728747806132365800,315.3153657226562,-4.321534156799316,1.3455413579940796,5.825092792510986
1728747806142375700,315.3253757324219,-3.552995204925537,2.2625205516815186,5.920860767364502
1728747806152385300,315.3353852539062,-3.7612907886505127,3.002328872680664,5.700594425201416
1728747806162395100,315.3453950195312,-4.702212333679199,3.648763418197632,5.590460777282715
1728747806172374300,315.3553742675781,-4.54419469833374,4.194641590118408,5.846640586853027
1728747806182323000,315.36532299804685,-4.24970817565918,4.062960147857666,5.377377033233643
1728747806192332800,315.37533276367185,-4.639962673187256,3.8810009956359863,4.929661273956299
1728747806202342700,315.3853427734375,-4.489128112792969,3.892971992492676,4.618414878845215
1728747806212352300,315.39535229492185,-3.936067581176758,4.335899353027344,4.742913722991943
1728747806222331600,315.4053315429687,-2.786850690841675,4.886565685272217,5.116408824920654
1728747806232310800,315.4153107910156,-1.1324573755264282,5.657498836517334,5.43723201751709
1728747806242320600,315.4253205566406,-0.5171475410461426,6.189011573791504,6.165069580078125
1728747806252299800,315.4352998046875,-1.0031704902648926,6.378153324127197,6.672640323638916
1728747806262279200,315.44527905273435,-1.335964560508728,6.296750545501709,6.794744491577148
1728747806272288800,315.45528881835935,-2.408566951751709,6.045359134674072,6.885724067687988
1728747806282268200,315.4652680664062,-2.691082715988159,6.023811340332031,7.536946773529053
1728747806292247300,315.4752473144531,-2.363077163696289,5.633556365966797,7.726089000701904
1728747806302226700,315.48522680664064,-2.296039342880249,5.262455463409424,8.214506149291992
1728747806312205800,315.49520581054685,-1.9393033981323242,4.742913722991943,8.394071578979492
1728747806322185200,315.5051853027344,-1.7381904125213623,4.309563159942627,8.638279914855957
1728747806332194800,315.5151948242187,-1.2856862545013428,4.022258758544922,8.762778282165527
1728747806342204700,315.5252045898437,-0.6320692300796509,3.9240965843200684,9.114726066589355
1728747806352183800,315.5351838378906,0.0694318488240242,3.8810009956359863,9.615114212036133
1728747806362163200,315.5451630859375,0.5602431893348694,3.8355112075805664,10.228029251098633
1728747806372172800,315.5551728515625,1.2090718746185303,3.7253777980804443,10.474632263183594
1728747806382152200,315.56515209960935,1.6663644313812256,3.6511576175689697,10.651803016662598
1728747806392162000,315.575162109375,2.030282974243164,3.509899616241455,10.884040832519531
1728747806402141200,315.5851411132812,2.4372973442077637,3.529053211212158,10.972626686096191
1728747806412151000,315.5951511230469,2.5929205417633057,3.6822822093963623,11.137825965881348
1728747806422130200,315.6051301269531,3.0813376903533936,3.6320040225982666,11.049241065979004
1728747806432109600,315.61510961914064,3.28963303565979,3.3710360527038574,10.44350814819336
1728747806442119200,315.625119140625,3.00711727142334,2.9879636764526367,9.943120002746582
1728747806452098600,315.6350986328125,2.7940332889556885,2.585737943649292,9.442731857299805
1728747806462108200,315.64510815429685,2.583343744277954,2.296039342880249,8.848969459533691
1728747806472118000,315.65511791992185,2.5091233253479004,2.276885747909546,8.382100105285645
1728747806482128000,315.6651279296875,2.494758129119873,2.5258827209472656,8.152256965637207
1728747806492107000,315.6751069335937,2.451662540435791,2.896984100341797,8.157045364379883
1728747806502086100,315.6850861816406,2.631227731704712,3.2417490482330322,8.123526573181152
1728747806512065500,315.6950654296875,2.9496564865112305,3.6727054119110107,7.948749542236328
1728747806522075100,315.7050751953125,3.201047658920288,4.122815132141113,8.054094314575195
1728747806532085000,315.7150849609375,3.773261785507202,4.754884719848633,7.996633529663086
1728747806542094800,315.7250947265625,3.974374771118164,5.161899089813232,8.08043098449707
1728747806552104400,315.7351044921875,3.907337188720703,5.5760955810546875,8.446743965148926
1728747806562114300,315.7451142578125,3.7876269817352295,5.872976779937744,8.7268648147583
1728747806572124200,315.75512426757814,3.464409828186035,5.5976433753967285,8.767566680908203
1728747806582103300,315.76510327148435,2.650381326675415,5.286397457122803,8.633491516113281
1728747806592113200,315.77511303710935,1.4508862495422363,4.637568473815918,8.226476669311523
1728747806602122800,315.78512280273435,-0.7852981686592102,3.1292216777801514,8.250418663024902
1728747806612102100,315.7951020507812,-2.851494312286377,3.023876667022705,7.9846625328063965
1728747806622050800,315.80505078125,-3.603273630142212,4.393360137939453,7.2568254470825195
1728747806632060700,315.81506079101564,-2.719813108444214,4.965574264526367,6.617573261260986
1728747806642070300,315.8250703125,-1.4437036514282227,4.774038314819336,6.476315498352051
1728747806652049700,315.83504956054685,0.07661445438861847,4.189853191375732,6.086060523986816
1728747806662028800,315.8450288085937,1.6496049165725708,3.6583402156829834,5.705382823944092
1728747806672038700,315.8550385742187,2.9328970909118652,3.1100680828094482,5.633556365966797
1728747806682017800,315.8650178222656,4.5394062995910645,2.5761611461639404,5.729324817657471
1728747806692027600,315.8750275878906,6.275202751159668,1.821987509727478,6.088454723358154
1728747806702006800,315.8850068359375,7.474697589874268,1.3335703611373901,6.593631267547607
1728747806711986200,315.89498608398435,7.376535415649414,1.455674648284912,6.66785192489624
1728747806721996000,315.90499609375,6.596025466918945,2.3295583724975586,6.677428722381592
1728747806732005600,315.91500561523435,5.5976433753967285,3.1747114658355713,6.619967937469482
1728747806741985000,315.9249851074219,4.6040496826171875,3.6966474056243896,6.464344501495361
1728747806751994600,315.9349946289062,3.7828385829925537,4.05817174911499,6.291962146759033
1728747806761974000,315.94497412109376,3.112462282180786,3.6750996112823486,6.517016887664795
1728747806771983600,315.9549836425781,1.4652514457702637,2.7246015071868896,7.161057472229004
1728747806781993500,315.9649934082031,1.0055646896362305,2.9089550971984863,7.393294811248779
1728747806792003300,315.97500341796876,1.4724340438842773,4.78122091293335,7.307103633880615
1728747806801982500,315.984982421875,2.032677173614502,6.088454723358154,7.16584587097168
1728747806811992300,315.99499243164064,2.03507137298584,6.390124320983887,6.782773494720459
1728747806821971500,316.00497143554685,1.338358759880066,6.007051944732666,6.588842868804932
1728747806831981300,316.01498120117185,1.5897499322891235,5.889736175537109,6.564900875091553
1728747806841960400,316.0249604492187,1.8363527059555054,6.050147533416748,6.3949127197265625
1728747806851970300,316.0349702148437,2.5785553455352783,6.497863292694092,6.117185115814209
1728747806861980200,316.0449802246094,3.0526070594787598,6.773196697235107,5.96874475479126
1728747806871989800,316.0549897460937,3.0597896575927734,6.9024834632873535,6.167463779449463
1728747806881969200,316.06496923828126,3.047818660736084,7.357381820678711,6.555324077606201
1728747806891978800,316.0749787597656,3.00711727142334,8.209717750549316,7.357381820678711
1728747806901958100,316.08495825195314,2.6886885166168213,8.844181060791016,8.128314971923828
1728747806911967700,316.0949677734375,2.738966703414917,9.433155059814453,8.908824920654297
1728747806921947100,316.10494702148435,2.676717519760132,10.022128105163574,9.318233489990234
1728747806931956700,316.11495678710935,2.7437551021575928,10.105925559997559,9.155426979064941
1728747806941936000,316.1249360351562,2.999934673309326,10.196905136108398,9.119514465332031
1728747806951946000,316.1349460449219,3.5003228187561035,10.156203269958496,8.98543930053711
1728747806961955600,316.1449555664062,4.505887508392334,9.579200744628906,8.4108304977417
1728747806971965400,316.1549653320312,5.631162166595459,8.760383605957031,7.627926826477051
1728747806981944600,316.1649445800781,6.253654956817627,7.759607791900635,6.615179061889648
1728747806991954400,316.1749543457031,7.398083209991455,6.794744491577148,5.51624059677124
1728747807001964300,316.18496435546876,8.549694061279297,6.342240333557129,4.922478675842285
1728747807011974000,316.1949738769531,8.868123054504395,5.987898349761963,4.788403511047363
1728747807021983700,316.2049836425781,9.009381294250488,5.698200225830078,4.965574264526367
1728747807031963000,316.214962890625,8.827422142028809,5.5329999923706055,5.442020416259766
1728747807041942300,316.2249423828125,9.425971984863281,5.612008571624756,5.91128396987915
1728747807051951900,316.23495190429685,9.425971984863281,5.65031623840332,6.22731876373291
1728747807061931300,316.2449311523437,8.40843677520752,5.537788391113281,6.117185115814209
1728747807071940900,316.2549409179687,7.096413612365723,5.475539207458496,5.726930618286133
1728747807081950700,316.2649506835937,5.504269599914551,5.48272180557251,4.903325080871582
1728747807091960600,316.2749606933594,4.347870349884033,5.48272180557251,4.477157115936279
1728747807101939700,316.2849396972656,4.256890773773193,5.25527286529541,3.9624037742614746
1728747807111949600,316.2949494628906,4.685452938079834,4.9583916664123535,3.5649664402008057
1728747807121959400,316.30495947265626,7.51779317855835,4.699818134307861,3.778050184249878
1728747807131938600,316.3149384765625,16.496049880981445,4.082113742828369,4.778826713562012
1728747807141917700,316.32491772460935,19.67794418334961,2.8107926845550537,5.628767967224121
1728747807151927600,316.33492749023435,14.441824913024902,3.0190882682800293,5.779603004455566
1728747807161906700,316.3449067382812,9.057265281677246,3.8786067962646484,5.2049946784973145
1728747807171916500,316.3549165039062,6.22731876373291,3.8283286094665527,4.484339714050293
1728747807181926400,316.3649265136719,6.380547523498535,3.179499864578247,3.9863457679748535
1728747807191936000,316.3749360351562,10.436325073242188,1.6400281190872192,3.021482467651367
1728747807201915400,316.3849152832031,6.631938934326172,2.1045033931732178,3.509899616241455
1728747807211925000,316.3949250488281,6.8593878746032715,2.0590133666992188,2.7126305103302
1728747807221904400,316.404904296875,6.028599739074707,1.8938134908676147,2.612074136734009
1728747807231883500,316.41488354492185,6.811503887176514,1.8483237028121948,2.3295583724975586
1728747807241893400,316.42489331054685,7.309497833251953,1.8986018896102905,2.315192937850952
1728747807251903200,316.4349033203125,6.7708024978637695,1.8507179021835327,2.5977089405059814
1728747807261882400,316.4448823242187,6.375759124755859,1.7525556087493896,2.7916390895843506
1728747807271861800,316.45486181640626,6.44279670715332,1.778891921043396,2.760514497756958
1728747807281841000,316.4648408203125,6.026205539703369,1.8052281141281128,2.7126305103302
1728747807291850800,316.47485083007814,5.530605792999268,1.656787633895874,2.6192567348480225
1728747807301830000,316.48482983398435,5.243301868438721,1.5466543436050415,2.4612393379211426
1728747807311839700,316.49483984375,5.135562419891357,1.5107412338256836,2.52109432220459
1728747807321849300,316.50484936523435,5.142745018005371,1.601720929145813,2.8203697204589844
1728747807331828700,316.5148288574219,7.082048416137695,1.7046716213226318,2.542642116546631
1728747807341807900,316.5248078613281,10.44350814819336,1.1276689767837524,1.0414776802062988
1728747807351787300,316.53478735351564,9.765948295593262,1.455674648284912,1.7286136150360107
1728747807361796900,316.544796875,9.263166427612305,2.300827741622925,2.3702597618103027
1728747807371776300,316.5547763671875,8.863334655761719,2.782062292098999,2.492363929748535
1728747807381725000,316.5647248535156,8.159439086914062,2.734178304672241,2.183511972427368
1728747807391734800,316.57473486328126,7.441178798675537,2.7964274883270264,2.1380221843719482
1728747807401744400,316.5847443847656,7.122750282287598,3.0382418632507324,2.293645143508911
1728747807411723800,316.59472387695314,7.2783732414245605,3.227383852005005,2.0159177780151367
1728747807421703000,316.60470288085935,7.836222171783447,3.5625722408294678,1.403002142906189
1728747807431682300,316.6146823730469,8.456320762634277,4.062960147857666,0.47405192255973816
1728747807441692000,316.6246918945312,7.723694801330566,4.390965938568115,-0.3758896589279175
1728747807451671300,316.63467138671876,10.196905136108398,4.371812343597412,-1.048660397529602
1728747807461650400,316.644650390625,13.237541198730469,4.5609540939331055,-0.09816227108240128
1728747807471660300,316.65466040039064,11.372458457946777,4.795586109161377,1.968033790588379
1728747807481639400,316.66463940429685,10.919954299926758,4.793191909790039,3.066972494125366
1728747807491649300,316.67464916992185,7.304709434509277,3.998316764831543,2.3918075561523438
1728747807501659000,316.68465893554685,7.869740962982178,2.557007312774658,1.843535304069519
1728747807511668700,316.69466870117185,8.034940719604492,2.22660756111145,1.6519991159439087
1728747807521678600,316.7046787109375,7.352593421936035,2.190694570541382,1.625662922859192
1728747807531657700,316.7146577148437,6.327875137329102,2.410961151123047,1.8291701078414917
1728747807541637000,316.72463720703126,8.305485725402832,2.5306711196899414,1.5083470344543457
1728747807551646700,316.7346467285156,10.290278434753418,2.7557260990142822,1.0606313943862915
1728747807561626000,316.74462622070314,11.676521301269531,3.138798475265503,1.0031704902648926
1728747807571635700,316.7546357421875,12.234370231628418,3.9863457679748535,0.9864110946655273
1728747807581645600,316.7646455078125,12.45463752746582,4.620809078216553,1.1085153818130493
1728747807591655400,316.77465551757814,12.105083465576172,4.594472885131836,1.0438719987869263
1728747807601665000,316.7846650390625,11.918335914611816,3.4763808250427246,0.8259995579719543
1728747807611644400,316.79464453125,11.93748950958252,3.509899616241455,0.6512228846549988
1728747807621623600,316.8046235351562,11.896788597106934,3.751713991165161,0.5386953949928284
1728747807631603000,316.81460302734376,11.528080940246582,3.711012601852417,0.3878606855869293
1728747807641612500,316.8246125488281,11.611878395080566,3.6176388263702393,0.031124621629714966
1728747807651592000,316.83459204101564,11.283872604370117,3.883395195007324,-0.1388636976480484
1728747807661571000,316.84457104492185,10.615890502929688,4.039018154144287,-0.3016694188117981
1728747807671550500,316.8545505371094,10.014945983886719,3.955221176147461,-0.4118026793003082
1728747807681529600,316.8645295410156,9.220070838928223,3.799597978591919,-0.4884171485900879
1728747807691539500,316.87453955078126,9.038111686706543,3.845088005065918,-0.6368576288223267
1728747807701549000,316.8845490722656,10.548852920532227,3.004723072052002,-1.1061211824417114
1728747807711559000,316.8945588378906,8.789113998413086,4.867412090301514,-0.507570743560791
1728747807721568800,316.90456884765626,9.469067573547363,4.244919776916504,-0.8595184087753296
1728747807731548000,316.9145478515625,9.806650161743164,4.055777549743652,-0.8619126081466675
1728747807741527000,316.92452709960935,9.514557838439941,4.4077253341674805,-0.6799532771110535
1728747807751537000,316.93453686523435,9.95748519897461,2.9305028915405273,-1.1037269830703735
1728747807761516300,316.9445163574219,8.757989883422852,3.5721490383148193,-0.6320692300796509
1728747807771526000,316.9545258789062,8.271966934204102,3.514688014984131,-0.304063618183136
1728747807781535700,316.9645356445312,9.57201862335205,2.8395233154296875,-0.7374141216278076
1728747807791515000,316.9745148925781,9.5408935546875,2.7964274883270264,-0.849941611289978
1728747807801494300,316.98449438476564,9.162610054016113,2.6599581241607666,-0.9361328482627869
1728747807811473400,316.99447338867185,9.746794700622559,2.6839001178741455,-0.9600749015808105
1728747807821483300,317.00448315429685,10.072406768798828,2.4899697303771973,-1.161187767982483
1728747807831492900,317.01449291992185,10.101137161254883,2.892195701599121,-1.158793568611145
1728747807841502700,317.02450268554685,9.955090522766113,2.999934673309326,-1.1827356815338135
1728747807851482000,317.0344821777344,9.895236015319824,2.913743495941162,-1.0965443849563599
1728747807861461200,317.0444611816406,9.617507934570312,3.021482467651367,-1.2066776752471924
1728747807871440400,317.0544404296875,8.520963668823242,3.093308687210083,-1.0103530883789062
1728747807881419800,317.06441967773435,8.44434928894043,3.0621838569641113,-1.0031704902648926
1728747807891429600,317.0744296875,8.561665534973145,3.5721490383148193,-1.1420341730117798
1728747807901439200,317.08443920898435,8.197746276855469,4.046200752258301,-1.4173674583435059
1728747807911449000,317.09444897460935,8.044517517089844,4.1156325340271,-1.5490485429763794
1728747807921458700,317.10445874023435,7.86734676361084,3.9456443786621094,-1.6735470294952393
1728747807931438000,317.1144379882812,7.953537940979004,3.995922565460205,-1.9919757843017578
1728747807941386800,317.12438671875,7.970297336578369,4.244919776916504,-2.1164743900299072
1728747807951322000,317.13432202148437,8.020575523376465,4.199429988861084,-2.2026655673980713
1728747807961332000,317.14433203125,8.413225173950195,4.422090530395508,-2.2840683460235596
1728747807971311000,317.15431103515624,8.152256965637207,4.467580318450928,-2.2433669567108154
1728747807981290200,317.1642902832031,8.22887134552002,4.46518611907959,-2.1380221843719482
1728747807991269600,317.17426953125,8.279149055480957,4.446032524108887,-1.9105730056762695
1728747808001248800,317.18424877929687,8.10437297821045,4.496310710906982,-1.6903064250946045
1728747808011258600,317.19425854492187,7.773972988128662,4.513070106506348,-1.3694833517074585
1728747808021268500,317.2042685546875,7.690176010131836,4.596867084503174,-1.3192051649093628
1728747808031247600,317.21424755859374,7.599195957183838,4.527435302734375,-1.3718775510787964
1728747808041257500,317.22425756835935,7.814674377441406,4.448426723480225,-1.5131354331970215
1728747808051267000,317.23426708984374,8.075642585754395,4.431667327880859,-1.6376339197158813
1728747808061277000,317.24427685546874,8.394071578979492,4.474762916564941,-1.625662922859192
1728747808071286800,317.25428686523435,8.607154846191406,4.5154643058776855,-1.5203180313110352
1728747808081296400,317.26429638671874,8.99740982055664,4.28322696685791,-1.558625340461731
1728747808091275800,317.2742758789062,9.490615844726562,3.957615375518799,-1.556231141090393
1728747808101255000,317.2842548828125,9.883264541625977,3.8498764038085938,-1.5107412338256836
1728747808111234300,317.294234375,10.038887977600098,3.7636849880218506,-1.4077905416488647
1728747808121244000,317.30424389648437,10.453084945678711,3.8163576126098633,-1.455674648284912
1728747808131253800,317.31425366210937,10.72602367401123,4.0749311447143555,-1.6112977266311646
1728747808141233000,317.32423291015624,10.855310440063477,4.230554580688477,-1.702277421951294
1728747808151212300,317.3342124023437,11.243170738220215,4.350264549255371,-2.0231003761291504
1728747808161222000,317.3442219238281,11.621455192565918,4.458003520965576,-2.142810583114624
1728747808171231700,317.3542316894531,12.011710166931152,4.49870491027832,-2.1140801906585693
1728747808181211000,317.3642109375,12.203246116638184,4.46518611907959,-1.6304513216018677
1728747808191220700,317.374220703125,12.205639839172363,4.086902141571045,-1.0199298858642578
1728747808201200000,317.3842001953125,12.162544250488281,3.3901896476745605,-0.2322375625371933
1728747808211209700,317.39420971679687,12.588712692260742,2.808398485183716,0.43095630407333374
1728747808221189000,317.40418920898435,12.945448875427246,2.8658595085144043,0.5841852426528931
1728747808231198700,317.41419873046874,13.352462768554688,3.1866824626922607,0.1388636976480484
1728747808241178000,317.4241782226562,12.787431716918945,3.5458126068115234,-0.07422025501728058
1728747808251187700,317.4341877441406,11.39400577545166,3.73016619682312,0.16759411990642548
1728747808261167000,317.4441669921875,10.022128105163574,3.737348794937134,0.47644615173339844
1728747808271146200,317.45414624023437,8.729259490966797,3.7852327823638916,0.6272808313369751
1728747808281095000,317.4640949707031,8.346187591552734,3.713406801223755,0.7805097699165344
1728747808291074300,317.47407421875,8.592789649963379,3.397372245788574,1.1013327836990356
1728747808301084200,317.4840842285156,8.56884765625,2.9065608978271484,1.3718775510787964
1728747808311063300,317.49406323242187,8.580819129943848,2.5091233253479004,1.4077905416488647
1728747808321042400,317.50404248046874,9.433155059814453,2.3032219409942627,1.4939818382263184
1728747808331052300,317.51405224609374,9.53849983215332,2.097320795059204,1.259350061416626
1728747808341062100,317.52406225585935,8.911218643188477,1.9632453918457031,1.259350061416626
1728747808351041300,317.5340412597656,9.813833236694336,2.1092917919158936,1.460463047027588
1728747808361020700,317.5440207519531,10.012551307678223,1.7932571172714233,1.3192051649093628
1728747808371030300,317.5540302734375,10.65898609161377,1.3024457693099976,1.0845733880996704
1728747808381040000,317.5640400390625,11.511322021484375,1.1324573755264282,1.0127472877502441
1728747808391050000,317.5740500488281,11.97100830078125,1.2330138683319092,0.9672574996948242
1728747808401029000,317.58402905273437,12.035652160644531,1.5514427423477173,0.9002198576927185
1728747808411039000,317.5940390625,11.537657737731934,1.8722656965255737,0.6967126727104187
1728747808421048600,317.60404858398437,11.05642318725586,1.9273324012756348,0.7230489253997803
1728747808431028000,317.61402807617185,10.939107894897461,1.6089035272598267,0.8667010068893433
1728747808441007000,317.6240070800781,10.429142951965332,1.2761094570159912,0.8451532125473022
1728747808451017000,317.6340168457031,9.53849983215332,1.0414776802062988,0.8044517636299133
1728747808461026600,317.6440266113281,9.272743225097656,0.7852981686592102,0.9816226959228516
1728747808471036400,317.6540363769531,9.193734169006348,0.5530605912208557,1.0797849893569946
1728747808481046300,317.6640463867187,8.621520042419434,0.3208230137825012,1.3742717504501343
1728747808491055900,317.6740559082031,8.200140953063965,0.047884032130241394,1.6855180263519287
1728747808501065700,317.6840656738281,8.106766700744629,-0.40462008118629456,1.9393033981323242
1728747808511075600,317.6940756835937,7.824251174926758,-0.7709329724311829,2.078166961669922
1728747808521085200,317.7040852050781,7.29034423828125,-1.192312479019165,2.3750481605529785
1728747808531064600,317.7140646972656,6.995857238769531,-1.7262194156646729,2.5522189140319824
1728747808541013200,317.72401318359374,6.797138690948486,-2.140416383743286,2.6384103298187256
1728747808551023000,317.73402319335935,6.299144744873047,-2.542642116546631,2.87064790725708
1728747808561032700,317.74403271484374,5.810727596282959,-2.964021682739258,3.1196448802948
1728747808571042600,317.75404248046874,5.288791656494141,-3.3518824577331543,3.292027235031128
1728747808581021700,317.7640217285156,4.910507678985596,-3.801992416381836,3.272873640060425
1728747808591001000,317.7740009765625,4.654327869415283,-4.098873138427734,3.069366693496704
1728747808600919300,317.7839191894531,5.018246650695801,-4.292803764343262,2.9233202934265137
1728747808610898400,317.7938984375,5.432443618774414,-4.3861775398254395,2.9903578758239746
1728747808620877800,317.8038779296875,5.872976779937744,-4.352658748626709,3.1004912853240967
1728747808630857000,317.81385693359374,6.179434776306152,-4.1611223220825195,3.265691041946411
1728747808640836400,317.8238364257812,6.900089263916016,-4.034229755401611,3.0358476638793945
1728747808650846000,317.8338459472656,7.766790390014648,-3.3854012489318848,3.5051112174987793
1728747808660825300,317.8438254394531,8.090007781982422,-2.540247917175293,4.345476150512695
1728747808670835000,317.8538349609375,8.38688850402832,-2.209848165512085,4.754884719848633
1728747808680844800,317.8638447265625,8.195352554321289,-2.0614075660705566,4.613626480102539
1728747808690824000,317.87382397460937,7.9846625328063965,-1.9033904075622559,4.778826713562012
1728747808700803300,317.88380322265624,8.08043098449707,-1.8818424940109253,4.807557106018066
1728747808710813000,317.89381298828124,8.236053466796875,-1.944091796875,4.474762916564941
1728747808720792300,317.9037922363281,8.848969459533691,-2.2912509441375732,4.065354347229004
1728747808730802200,317.9138022460937,9.550470352172852,-3.0119056701660156,3.555389642715454
1728747808740781300,317.92378125,10.165780067443848,-3.689464807510376,2.9759926795959473
1728747808750760400,317.93376049804687,10.826580047607422,-4.37420654296875,2.4444799423217773
1728747808760678700,317.9436787109375,10.896012306213379,-4.8937482833862305,1.968033790588379
1728747808770658000,317.95365795898437,10.632649421691895,-5.16429328918457,1.723825216293335
1728747808780637200,317.96363720703124,10.436325073242188,-5.116408824920654,1.8794482946395874
1728747808790647000,317.97364697265624,10.589553833007812,-3.5242648124694824,1.886630892753601
1728747808800626200,317.9836262207031,10.500968933105469,-2.741360902786255,2.054224967956543
1728747808810605600,317.99360546875,10.309432983398438,-2.0661959648132324,2.8179752826690674
1728747808820584700,318.00358471679687,9.911994934082031,-1.4939818382263184,3.555389642715454
1728747808830594600,318.01359448242187,10.065223693847656,-1.525106430053711,3.4093432426452637
1728747808840573700,318.02357373046874,10.232817649841309,-1.6496049165725708,2.9328970909118652
1728747808850583600,318.03358349609374,10.101137161254883,-1.0989385843276978,2.806004285812378
1728747808860562700,318.0435627441406,10.72841739654541,-1.0319008827209473,2.4827871322631836
1728747808870572500,318.0535725097656,10.237606048583984,-1.6903064250946045,1.9105730056762695
1728747808880552000,318.0635520019531,8.978256225585938,-2.676717519760132,1.173158884048462
1728747808890561500,318.0735615234375,7.922413349151611,-4.07014274597168,0.15801730751991272
1728747808900571400,318.0835712890625,7.029376029968262,-5.702988624572754,0.2082955539226532
1728747808910550500,318.09355053710937,7.395689010620117,-4.879383087158203,1.525106430053711
1728747808920560400,318.10356030273437,8.2312650680542,-3.5458126068115234,2.738966703414917
1728747808930539500,318.11353955078124,8.918401718139648,-3.0885202884674072,3.1028854846954346
1728747808940519000,318.1235187988281,8.99740982055664,-3.066972494125366,3.136404275894165
1728747808950528500,318.1335285644531,8.96389102935791,-3.4117374420166016,2.6384103298187256
1728747808960508000,318.1435078125,9.35893440246582,-3.8163576126098633,2.27209734916687
1728747808970517800,318.1535178222656,9.885659217834473,-4.098873138427734,1.9728221893310547
1728747808980527400,318.16352734375,10.556035041809082,-4.24970817565918,1.7717092037200928
1728747808990537200,318.173537109375,11.159374237060547,-4.07014274597168,1.7836803197860718
1728747809000546800,318.183546875,11.635820388793945,-3.6990416049957275,2.03507137298584
1728747809010556700,318.193556640625,11.748347282409668,-3.397372245788574,2.056619167327881
1728747809020536000,318.2035361328125,11.566388130187988,-3.0573954582214355,2.1116859912872314
1728747809030515200,318.21351513671874,11.058817863464355,-2.7126305103302,2.142810583114624
1728747809040494300,318.2234943847656,10.433931350708008,-2.6360161304473877,2.123656988143921
1728747809050473700,318.2334736328125,10.002974510192871,-2.7246015071868896,2.0159177780151367
1728747809060422400,318.24342236328124,9.311050415039062,-2.8562827110290527,1.8507179021835327
1728747809070432300,318.25343237304685,8.583212852478027,-2.999934673309326,1.8602946996688843
1728747809080472600,318.26347265625,7.905653953552246,-2.9233202934265137,1.9297266006469727
1728747809090451700,318.27345166015624,7.69735860824585,-2.762908697128296,2.1930887699127197
1728747809100400400,318.283400390625,7.46033239364624,-2.786850690841675,2.274491548538208
1728747809110410200,318.29341015625,6.952761650085449,-2.8850131034851074,2.5091233253479004
1728747809120420000,318.3034201660156,6.481103897094727,-3.1076738834381104,2.650381326675415
1728747809130429700,318.3134296875,6.174646377563477,-3.3710360527038574,2.5929205417633057
1728747809140409000,318.3234091796875,6.071695327758789,-3.536235809326172,2.6144683361053467
1728747809150418700,318.33341870117187,6.1052141189575195,-3.6798880100250244,2.741360902786255
1728747809160428500,318.34342846679687,6.495469093322754,-3.5386300086975098,2.9879636764526367
1728747809170407700,318.35340771484374,7.189787864685059,-3.2632968425750732,3.555389642715454
1728747809180387000,318.3633869628906,7.589619159698486,-2.9520506858825684,3.971980571746826
1728747809190396700,318.3733967285156,8.037335395812988,-2.7557260990142822,4.158728122711182
1728747809200376000,318.3833759765625,8.269572257995605,-2.889801502227783,4.311957359313965
1728747809210416400,318.3934165039062,8.135497093200684,-3.1483752727508545,4.24970817565918
1728747809220395500,318.4033955078125,8.159439086914062,-3.450044631958008,4.077325344085693
1728747809230375000,318.413375,8.688557624816895,-3.646369218826294,4.101267337799072
1728747809240323600,318.4233234863281,9.20091724395752,-3.627215623855591,4.211400985717773
1728747809250302700,318.433302734375,9.560047149658203,-3.643975019454956,4.422090530395508
1728747809260282000,318.4432822265625,9.694122314453125,-3.706224203109741,4.522646903991699
1728747809270261200,318.45326123046874,9.591172218322754,-3.7684733867645264,4.575319290161133
1728747809280240600,318.4632407226562,9.44991397857666,-3.907337188720703,4.58968448638916
1728747809290311400,318.4733115234375,9.02135181427002,-4.060565948486328,4.501099109649658
1728747809300229600,318.4832297363281,8.453926086425781,-4.206612586975098,4.486733913421631
1728747809310239200,318.4932392578125,7.908048152923584,-4.32871675491333,4.41969633102417
1728747809320218600,318.50321850585937,7.692570209503174,-4.359841346740723,4.446032524108887
1728747809330228200,318.51322827148437,7.19936466217041,-4.441244125366211,4.513070106506348
1728747809340207600,318.52320751953124,6.885724067687988,-4.326322555541992,4.563348293304443
1728747809350217500,318.53321752929685,6.818686485290527,-4.223371982574463,4.692635536193848
1728747809360227000,318.54322705078124,7.038952827453613,-4.1156325340271,4.78122091293335
1728747809370237000,318.55323681640624,7.7213006019592285,-4.084507942199707,4.829104900360107
1728747809380216000,318.5632160644531,8.051700592041016,-4.182670593261719,4.666299343109131
1728747809390226000,318.5732258300781,8.425195693969727,-4.357447147369385,4.307168960571289
1728747809400174600,318.58317456054687,8.640673637390137,-4.367023944854736,4.098873138427734
1728747809410154000,318.59315405273435,8.973467826843262,-4.417302131652832,4.213795185089111
1728747809420133000,318.6031330566406,9.02135181427002,-4.642356872558594,4.220977783203125
1728747809430112300,318.6131123046875,8.920795440673828,-4.963180065155029,3.9456443786621094
1728747809440091600,318.62309155273437,8.619126319885254,-5.216965675354004,3.6774938106536865
1728747809450070800,318.63307080078124,8.923190116882324,-5.568912982940674,3.5649664402008057
1728747809460050200,318.6430502929687,8.841787338256836,-5.832275390625,3.1507694721221924
1728747809470029300,318.653029296875,8.614337921142578,-5.983109951019287,2.9089550971984863
1728747809480008700,318.6630087890625,8.530540466308594,-5.992686748504639,2.7964274883270264
1728747809489987800,318.67298779296874,8.128314971923828,-5.880159378051758,2.8562827110290527
1728747809499936500,318.6829365234375,7.462726593017578,-5.664681434631348,3.023876667022705
1728747809509946400,318.6929462890625,7.268796443939209,-5.348646640777588,3.220201253890991
1728747809519956200,318.7029562988281,7.084442615509033,-5.063736438751221,3.4955344200134277
1728747809529965800,318.7129658203125,6.794744491577148,-4.912901878356934,3.6391866207122803
1728747809539945200,318.7229453125,6.572083473205566,-4.867412090301514,3.5170822143554688
1728747809549924400,318.73292431640624,6.155492782592773,-4.841075897216797,3.3231520652770996
1728747809559873000,318.742873046875,5.74129581451416,-4.78122091293335,3.179499864578247
1728747809569852400,318.75285229492187,5.700594425201416,-4.7620673179626465,3.2321722507476807
1728747809579831600,318.76283154296874,5.762843608856201,-4.714183330535889,3.246537446975708
1728747809589841400,318.77284130859374,6.138733386993408,-4.675876140594482,3.222595453262329
1728747809599851000,318.78285107421874,6.737283706665039,-4.754884719848633,3.045424461364746
1728747809609860900,318.79286083984374,7.218518257141113,-4.977545261383057,2.7964274883270264
1728747809619840300,318.8028403320312,7.479485988616943,-5.092466831207275,2.5498247146606445
1728747809629819400,318.8128193359375,7.781155586242676,-5.013458251953125,2.52109432220459
1728747809639798500,318.82279858398437,8.312667846679688,-4.8937482833862305,2.4899697303771973
1728747809649808400,318.83280834960937,8.365341186523438,-4.865017890930176,2.408566951751709
1728747809659787800,318.84278784179685,8.415618896484375,-4.7836151123046875,2.497152328491211
1728747809669797400,318.85279736328124,8.377311706542969,-4.537012100219727,2.5953147411346436
1728747809679776800,318.8627768554687,8.245630264282227,-4.266467571258545,2.8419175148010254
1728747809689756000,318.872755859375,8.123526573181152,-4.141968727111816,2.9735984802246094
1728747809699735000,318.88273510742187,7.805097579956055,-4.017470359802246,2.96162748336792
1728747809709714400,318.89271435546874,7.812280178070068,-3.9240965843200684,3.1675288677215576
1728747809719632600,318.90263256835937,7.680599212646484,-3.9001545906066895,3.2345664501190186
1728747809729642500,318.912642578125,7.273584842681885,-3.8786067962646484,3.2561142444610596
1728747809739652000,318.92265209960937,7.003039836883545,-3.778050184249878,3.3207578659057617
1728747809749631500,318.93263159179685,7.084442615509033,-3.7205893993377686,3.5003228187561035
1728747809759610600,318.9426105957031,7.029376029968262,-3.7636849880218506,3.4811692237854004
1728747809769590000,318.9525900878906,7.189787864685059,-3.883395195007324,3.332728862762451
1728747809779569200,318.96256909179687,7.795520782470703,-4.079719543457031,3.1938650608062744
1728747809789548300,318.97254833984374,8.4108304977417,-4.252102375030518,3.066972494125366
1728747809799527700,318.9825275878906,8.911218643188477,-4.37420654296875,2.9233202934265137
1728747809809506800,318.9925068359375,9.68694019317627,-4.323928356170654,2.7317841053009033
1728747809819486200,319.002486328125,10.378864288330078,-4.290409564971924,2.6815059185028076
1728747809829465300,319.01246533203124,10.848128318786621,-4.367023944854736,2.38462495803833
1728747809839444700,319.0224448242187,11.295844078063965,-4.517858505249023,2.1284453868865967
1728747809849424000,319.032423828125,11.41555404663086,-4.692635536193848,1.8555063009262085
1728747809859372500,319.04237255859374,11.281478881835938,-4.81473970413208,1.699883222579956
1728747809869382400,319.05238232421874,11.037269592285156,-4.836287498474121,1.6974890232086182
1728747809879361500,319.0623615722656,10.790667533874512,-4.709394931793213,1.7621324062347412
1728747809889371400,319.0723713378906,10.32858657836914,-4.405331134796143,1.8794482946395874
1728747809899350500,319.0823505859375,9.883264541625977,-4.091690540313721,2.209848165512085
1728747809909360400,319.0923603515625,9.672574996948242,-3.9169139862060547,2.427720546722412
1728747809919339800,319.10233984375,9.627084732055664,-3.758896589279175,2.477998733520508
1728747809929349400,319.11234936523437,9.586383819580078,-3.825934410095215,2.343923568725586
1728747809939359200,319.12235913085937,9.196128845214844,-4.1611223220825195,1.9967641830444336
1728747809949368800,319.13236889648437,9.05247688293457,-4.441244125366211,1.7621324062347412
1728747809959348200,319.14234814453124,8.916007041931152,-4.67827033996582,1.659181833267212
1728747809969358000,319.15235815429685,8.719682693481445,-4.410119533538818,1.9512743949890137
1728747809979337200,319.1623371582031,8.633491516113281,-4.005499362945557,2.300827741622925
1728747809989316400,319.17231640625,8.741230010986328,-3.708618402481079,2.5258827209472656
1728747809999295700,319.18229565429687,9.193734169006348,-3.445256233215332,2.894589900970459
1728747810009305600,319.1923056640625,9.062053680419922,-3.134010076522827,3.2130186557769775
1728747810019284700,319.20228466796874,9.033323287963867,-3.1244332790374756,3.4165258407592773
1728747810029294600,319.21229467773435,9.066842079162598,-3.2393548488616943,3.5266590118408203
1728747810039273700,319.2222736816406,8.844181060791016,-3.4356794357299805,3.620033025741577
1728747810049252900,319.2322529296875,8.513781547546387,-3.620033025741577,3.687070608139038
1728747810059232300,319.24223217773437,8.401253700256348,-3.713406801223755,3.442862033843994
1728747810069242000,319.2522421875,8.26239013671875,-3.6727054119110107,3.2585084438323975
1728747810079221200,319.26222119140624,8.437167167663574,-3.670311212539673,3.1292216777801514
1728747810089231000,319.27223120117185,8.913613319396973,-3.7708675861358643,2.8227639198303223
1728747810099240700,319.28224072265624,9.334992408752441,-3.687070608139038,2.604891538619995
1728747810109250600,319.29225048828124,9.670180320739746,-3.5721490383148193,2.626439332962036
1728747810119229700,319.3022297363281,9.569623947143555,-3.335123062133789,2.6815059185028076
1728747810129209000,319.312208984375,9.162610054016113,-3.047818660736084,2.9496564865112305
1728747810139188200,319.32218823242187,8.992621421813965,-2.9328970909118652,3.117250680923462
1728747810149198000,319.33219799804687,8.686163902282715,-2.8131868839263916,3.2130186557769775
1728747810159177200,319.34217724609374,8.501810073852539,-2.7700912952423096,3.375824451446533
1728747810169217500,319.35221752929687,8.480262756347656,-3.002328872680664,3.248931646347046
1728747810179197000,319.36219702148435,8.434772491455078,-3.203441858291626,2.8658595085144043
1728747810189206500,319.37220654296874,8.676587104797363,-3.3518824577331543,2.7269957065582275
1728747810199124700,319.38212475585937,9.255983352661133,-3.5697548389434814,2.6001031398773193
1728747810209134600,319.39213452148437,9.552865028381348,-3.7612907886505127,2.434903144836426
1728747810219113700,319.40211376953124,9.500192642211914,-3.8091750144958496,2.346317768096924
1728747810229123600,319.41212353515624,9.560047149658203,-3.8738183975219727,2.367865562438965
1728747810239133400,319.42213354492185,9.828198432922363,-3.931279182434082,2.341529369354248
1728747810249143000,319.43214306640624,9.945513725280762,-3.950432777404785,2.3582887649536133
1728747810259122400,319.4421223144531,10.050858497619629,-3.995922565460205,2.4468741416931152
1728747810269101600,319.4521015625,9.832986831665039,-4.019864559173584,2.449268341064453
1728747810279081000,319.4620810546875,9.38048267364502,-3.9456443786621094,2.5282769203186035
1728747810289060000,319.47206005859374,8.968679428100586,-3.821146011352539,2.7246015071868896
1728747810299039500,319.4820395507812,8.374917984008789,-3.4763808250427246,2.956839084625244
1728747810309018600,319.4920185546875,8.212111473083496,-3.2321722507476807,3.375824451446533
1728747810318997800,319.50199780273437,7.8960771560668945,-3.0550012588500977,3.4332852363586426
1728747810328977200,319.51197705078124,7.589619159698486,-2.853888511657715,3.380612850189209
1728747810338956300,319.5219562988281,7.532158374786377,-2.7964274883270264,3.397372245788574
1728747810348935700,319.5319357910156,7.647080421447754,-2.8658595085144043,3.2417490482330322
1728747810358884400,319.54188427734374,7.63989782333374,-2.806004285812378,3.0597896575927734
1728747810368863500,319.5518635253906,7.740454196929932,-2.583343744277954,3.2154128551483154
1728747810378843000,319.5618427734375,7.797914981842041,-2.3056161403656006,3.4548330307006836
1728747810388791600,319.57179150390624,7.709329605102539,-2.03507137298584,3.6176388263702393
1728747810398770700,319.5817707519531,7.625532627105713,-1.8052281141281128,3.840299606323242
1728747810408750000,319.59175,7.462726593017578,-1.7381904125213623,3.957615375518799
1728747810418729200,319.60172924804687,7.326257228851318,-1.8124107122421265,3.8810009956359863
1728747810428708600,319.61170849609374,7.726089000701904,-2.094926595687866,3.8953661918640137
1728747810438687700,319.6216877441406,7.891288757324219,-2.3558945655822754,3.6822822093963623
1728747810448667100,319.6316672363281,7.94635534286499,-2.499546527862549,3.3016040325164795
1728747810458646300,319.64164624023437,8.018181800842285,-2.4468741416931152,3.2824504375457764
1728747810468656000,319.65165625,7.781155586242676,-2.252943754196167,3.4117374420166016
1728747810478635300,319.66163525390624,7.642292022705078,-2.0207061767578125,3.4572272300720215
1728747810488645000,319.67164501953124,7.479485988616943,-1.86508309841156,3.442862033843994
1728747810498654700,319.68165478515624,7.177816867828369,-1.8794482946395874,3.332728862762451
1728747810508664600,319.69166455078124,7.352593421936035,-2.0805611610412598,3.090914487838745
1728747810518582800,319.70158276367187,7.920019149780273,-2.33913516998291,2.956839084625244
1728747810528592600,319.71159252929687,8.413225173950195,-2.4612393379211426,2.676717519760132
1728747810538571800,319.72157177734374,8.655038833618164,-2.542642116546631,2.52109432220459
1728747810548581600,319.73158154296874,8.645462036132812,-2.604891538619995,2.425326347351074
1728747810558591500,319.74159155273435,8.523358345031738,-2.691082715988159,2.2697031497955322
1728747810568601000,319.75160107421874,8.44434928894043,-2.82515811920166,2.0159177780151367
1728747810578580500,319.7615805664062,8.834604263305664,-2.7078421115875244,1.8794482946395874
1728747810588559600,319.7715595703125,10.165780067443848,-2.1763293743133545,2.123656988143921
1728747810598538800,319.78153881835937,11.990161895751953,-1.381454348564148,2.27209734916687
1728747810608548600,319.79154858398437,15.28218936920166,-0.22744916379451752,3.3710360527038574
1728747810618497300,319.8014973144531,13.21599292755127,-0.5793967843055725,2.628833532333374
1728747810628537600,319.81153759765624,13.03403377532959,-0.6344634294509888,2.628833532333374
1728747810638517000,319.8215170898437,11.39161205291748,-1.3048399686813354,2.1356279850006104
1728747810648496000,319.83149609375,9.710882186889648,-2.0661959648132324,1.659181833267212
1728747810658475500,319.8414755859375,8.549694061279297,-2.6431987285614014,1.3431471586227417
1728747810668454700,319.85145458984374,7.939172744750977,-2.9041666984558105,1.3192051649093628
1728747810678372900,319.86137280273437,7.5201873779296875,-3.0142998695373535,1.3934253454208374
1728747810688382700,319.8713828125,7.105990409851074,-3.490746021270752,1.357512354850769
1728747810698392300,319.88139233398437,6.854599475860596,-4.446032524108887,1.237802267074585
1728747810708371700,319.89137182617185,8.520963668823242,-5.020640850067139,1.1300631761550903
1728747810718290000,319.9012900390625,11.760318756103516,-4.568136692047119,1.3096283674240112
1728747810728269000,319.91126904296874,13.407529830932617,-3.780444383621216,1.802833914756775
1728747810738248400,319.9212485351562,12.904747009277344,-2.5234885215759277,2.5713725090026855
1728747810748258000,319.9312580566406,11.207258224487305,-1.7094600200653076,2.2864625453948975
1728747810758268000,319.9412678222656,9.68694019317627,-1.845929503440857,2.073378562927246
1728747810768277800,319.9512778320312,9.102754592895508,-1.8962076902389526,1.889025092124939
1728747810778257000,319.9612568359375,9.437943458557129,-2.387019157409668,1.0869675874710083
1728747810788236000,319.97123608398437,9.454702377319336,-2.4636335372924805,1.2952631711959839
1728747810798215400,319.98121533203124,9.48343276977539,-2.715024709701538,0.9457096457481384
1728747810808225300,319.99122534179685,9.038111686706543,-2.96162748336792,1.0773907899856567
1728747810818204400,320.0012043457031,9.232041358947754,-3.361459255218506,0.9169792532920837
1728747810828214300,320.0112143554687,9.68933391571045,-3.485957622528076,0.8427590131759644
1728747810838163000,320.02116284179687,10.3549222946167,-3.421314239501953,0.9600749015808105
1728747810848172500,320.03117260742187,10.946290016174316,-3.737348794937134,0.40940847992897034
1728747810858182400,320.04118237304687,10.833763122558594,-3.8594532012939453,0.13168109953403473
1728747810868192300,320.05119213867187,10.575188636779785,-3.512293815612793,0.31364041566848755
1728747810878171400,320.06117138671874,10.02452278137207,-3.7684733867645264,0.3256114423274994
1728747810888089600,320.07108959960937,9.330204010009766,-3.2154128551483154,0.9792284965515137
1728747810898069000,320.08106909179685,9.023746490478516,-2.5330653190612793,1.53707754611969
1728747810908078600,320.09107861328124,8.643068313598633,-2.650381326675415,1.6208745241165161
1728747810918058000,320.1010581054687,8.073247909545898,-2.513911724090576,1.6496049165725708
1728747810928098300,320.11109838867185,7.493851184844971,-2.2601263523101807,1.8507179021835327
1728747810938047000,320.121046875,7.433996200561523,-2.252943754196167,1.9991583824157715
1728747810948056600,320.131056640625,7.146692276000977,-1.7501614093780518,1.7956513166427612
1728747810958066400,320.14106640625,7.393294811248779,-1.1085153818130493,1.7717092037200928
1728747810968076300,320.151076171875,7.795520782470703,-0.3016694188117981,1.7166426181793213
1728747810978025000,320.16102490234374,8.413225173950195,0.5746083855628967,1.7717092037200928
1728747810988034800,320.17103491210935,9.066842079162598,1.7597382068634033,1.7094600200653076
1728747810998014000,320.1810139160156,9.68933391571045,2.980781078338623,1.8195933103561401
1728747811008023800,320.1910239257812,10.29746150970459,4.01268196105957,2.161964178085327
1728747811018003000,320.2010029296875,11.190498352050781,5.015852451324463,2.8395233154296875
1728747811027982300,320.210982421875,11.480196952819824,5.664681434631348,3.2609026432037354
1728747811037961500,320.22096142578124,11.295844078063965,4.989516258239746,2.698265314102173
1728747811047971300,320.23097143554685,10.886435508728027,3.643975019454956,2.0853497982025146
1728747811057950500,320.2409504394531,10.632649421691895,1.8555063009262085,1.37906014919281
1728747811067929900,320.2509299316406,9.555258750915527,-0.004788403399288654,0.6248866319656372
1728747811077909000,320.26090893554687,7.9415669441223145,-2.1140801906585693,0.014365210197865963
1728747811087888100,320.27088818359374,7.024587631225586,-4.393360137939453,-1.0007762908935547
1728747811097837000,320.2808371582031,8.238448143005371,-4.072536945343018,-1.2258312702178955
1728747811107846700,320.2908466796875,8.827422142028809,-2.736572504043579,0.11013327538967133
1728747811117856500,320.3008564453125,9.832986831665039,-1.4844050407409668,0.9600749015808105
1728747811127866400,320.3108664550781,11.42752456665039,-0.5482721924781799,1.534683346748352
1728747811137876000,320.3208759765625,12.29662036895752,0.011971008032560349,1.5322890281677246
1728747811147885800,320.3308857421875,12.20803451538086,-0.2753331959247589,1.1683704853057861
1728747811157804000,320.3408039550781,13.208810806274414,-1.644816517829895,-0.507570743560791
1728747811167783200,320.350783203125,15.986084938049316,-3.222595453262329,-2.6671407222747803
1728747811177762600,320.36076245117187,12.09550666809082,-2.4612393379211426,-1.1803414821624756
1728747811187772200,320.37077221679687,11.944672584533691,-1.501164436340332,-0.5267243981361389
1728747811197751600,320.38075146484374,10.160991668701172,-1.2090718746185303,-0.3711012601852417
1728747811207730700,320.3907307128906,6.653486728668213,-0.24181437492370605,0.5267243981361389
1728747811217679600,320.4006796875,7.891288757324219,0.6368576288223267,0.6655880808830261
1728747811227689200,320.41068920898437,8.774748802185059,1.0055646896362305,0.811634361743927
1728747811237699000,320.42069897460937,10.78348445892334,1.2473790645599365,0.47165772318840027
1728747811247678200,320.43067822265624,12.200851440429688,1.048660397529602,-0.028730420395731926
1728747811257657600,320.4406577148437,12.188880920410156,0.5171475410461426,-0.3256114423274994
1728747811267636700,320.45063671875,11.405977249145508,0.2059013396501541,-0.4644751250743866
1728747811277616000,320.4606162109375,10.790667533874512,0.12689268589019775,-0.5434837937355042
1728747811287625700,320.47062573242187,10.5344877243042,0.08619125932455063,-0.6033388376235962
1728747811297605000,320.48060522460935,10.529699325561523,0.22744916379451752,-0.6009446382522583
1728747811307614700,320.49061474609374,10.194510459899902,0.40222588181495667,-0.569819986820221
1728747811317563600,320.5005637207031,10.639832496643066,0.2944868206977844,-0.5554547905921936
1728747811327573200,320.5105732421875,10.752359390258789,-0.33758243918418884,-0.9289502501487732
1728747811337552600,320.520552734375,10.065223693847656,-0.7924807667732239,-0.8547300100326538
1728747811347562200,320.53056225585937,10.194510459899902,-0.5626373887062073,-1.2521674633026123
1728747811357572000,320.54057202148437,10.81460952758789,0.363918662071228,-1.1851298809051514
1728747811367582000,320.55058203125,10.170568466186523,1.3503297567367554,-0.9241618514060974
1728747811377591600,320.56059155273437,10.283096313476562,1.7573440074920654,-0.2992752194404602
1728747811387601400,320.57060131835937,10.11550235748291,2.1739351749420166,-0.2513911724090576
1728747811397611300,320.580611328125,10.884040832519531,2.2601263523101807,-0.1628057211637497
1728747811407590400,320.59059033203124,9.260771751403809,2.0470423698425293,-0.569819986820221
1728747811417569500,320.6005695800781,9.543288230895996,2.183511972427368,-0.09576806426048279
1728747811427579400,320.6105793457031,10.754754066467285,1.5155296325683594,-0.26336219906806946
1728747811437528000,320.62052807617187,9.99339771270752,1.1540051698684692,-0.5123591423034668
1728747811447538000,320.63053784179687,11.173739433288574,0.7158663272857666,-0.42616790533065796
1728747811457547800,320.6405478515625,8.461109161376953,1.7357962131500244,0.9481038451194763
1728747811467527000,320.65052685546874,8.710105895996094,2.1523873805999756,1.7046716213226318
1728747811477445000,320.66044506835937,8.283937454223633,1.9536685943603516,1.680729627609253
1728747811487424300,320.67042431640624,8.674192428588867,1.4508862495422363,0.7493851184844971
1728747811497403600,320.6804035644531,8.394071578979492,0.9217676520347595,-0.35673606395721436
1728747811507413500,320.6904135742187,7.754819393157959,0.7422025203704834,-0.6584054827690125
1728747811517392600,320.700392578125,7.0772600173950195,1.381454348564148,-0.47884035110473633
1728747811527371800,320.71037182617187,7.050923824310303,2.1332337856292725,-0.2753331959247589
1728747811537351200,320.72035107421874,7.146692276000977,2.3319525718688965,-0.22744916379451752
1728747811547361000,320.73036108398435,6.651092529296875,2.5785553455352783,-0.608127236366272
1728747811557370600,320.74037060546874,7.3693528175354,2.940079689025879,-0.6967126727104187
1728747811567380500,320.75038037109374,7.9631147384643555,2.8155810832977295,-0.9074024558067322
1728747811577329200,320.7603291015625,8.71728801727295,2.1332337856292725,-0.9313444495201111
1728747811587339000,320.7703391113281,9.071630477905273,1.436521053314209,-0.8595184087753296
1728747811597348600,320.7803486328125,8.793902397155762,1.434126853942871,-0.6560112833976746
1728747811607358500,320.7903583984375,9.191340446472168,1.3958195447921753,-0.6368576288223267
1728747811617368300,320.8003684082031,9.682151794433594,1.3000515699386597,-0.950498104095459
1728747811627347500,320.81034741210937,10.010157585144043,1.41257905960083,-1.5203180313110352
1728747811637296000,320.8202961425781,9.787496566772461,1.5921441316604614,-1.8148049116134644
1728747811647306000,320.8303059082031,9.363722801208496,1.259350061416626,-1.4173674583435059
1728747811657285000,320.84028515625,9.02135181427002,1.4939818382263184,-1.3862427473068237
1728747811667264500,320.85026440429687,9.533711433410645,2.027888774871826,-1.3862427473068237
1728747811677243600,320.86024365234374,9.742006301879883,2.0039467811584473,-1.2018892765045166
1728747811687253500,320.87025341796874,10.017339706420898,1.7860745191574097,-1.0797849893569946
1728747811697202200,320.8802021484375,10.481815338134766,1.7070658206939697,-0.8020575642585754
1728747811707212000,320.8902119140625,10.718840599060059,1.4245500564575195,-0.5913678407669067
1728747811717221600,320.9002216796875,11.274295806884766,0.9289502501487732,-0.9050082564353943
1728747811727231500,320.9102314453125,11.978191375732422,0.5434837937355042,-1.259350061416626
1728747811737211000,320.9202109375,11.657367706298828,0.5339069962501526,-1.036689281463623
1728747811747220500,320.93022045898437,11.405977249145508,0.5195417404174805,-0.7541735172271729
1728747811757230300,320.94023022460937,11.453861236572266,0.42377370595932007,-0.7493851184844971
1728747811767240000,320.95023999023437,11.192893028259277,0.395043283700943,-0.5434837937355042
1728747811777249800,320.96024975585937,11.30063247680664,0.5003881454467773,-0.42377370595932007
1728747811787259600,320.970259765625,11.48259162902832,0.38546648621559143,-0.3447650372982025
1728747811797238800,320.98023876953124,11.587936401367188,0.30885201692581177,-0.33039984107017517
1728747811807218200,320.9902182617187,12.203246116638184,0.2849099934101105,-0.304063618183136
1728747811817197300,321.000197265625,12.533645629882812,-0.15562310814857483,-0.1412578970193863
1728747811827207200,321.0102072753906,12.24155330657959,-0.43095630407333374,-0.12210428714752197
1728747811837216800,321.020216796875,11.963826179504395,-0.26815059781074524,0.023942016065120697
1728747811847226600,321.0302265625,11.621455192565918,-0.06464344263076782,0.2801215946674347
1728747811857205800,321.04020581054687,11.35809326171875,0.05506663769483566,0.5817909836769104
1728747811867215600,321.05021557617187,11.611878395080566,-0.023942016065120697,0.5985504388809204
1728747811877195000,321.06019506835935,11.492168426513672,0.10534487664699554,0.4596867263317108
1728747811887204600,321.07020458984374,11.044452667236328,0.5746083855628967,0.5386953949928284
1728747811897184000,321.0801840820312,10.630255699157715,1.0414776802062988,0.507570743560791
1728747811907163100,321.0901630859375,10.599130630493164,1.280897855758667,0.40222588181495667
1728747811917142300,321.10014233398437,10.747570991516113,1.2521674633026123,0.3758896589279175
1728747811927121700,321.11012158203124,11.111490249633789,1.0534487962722778,0.2992752194404602
1728747811937100800,321.1201008300781,11.54005241394043,0.871489405632019,0.21787235140800476
1728747811947110700,321.1301105957031,11.417947769165039,0.6943184733390808,0.45010992884635925
1728747811957028900,321.14002880859374,11.049241065979004,0.40701428055763245,0.47165772318840027
1728747811967038700,321.15003881835935,10.366893768310547,0.6584054827690125,0.10295066982507706
1728747811977048300,321.16004833984374,10.8720703125,0.9816226959228516,1.3623007535934448
1728747811987058200,321.17005810546874,10.11789608001709,0.24660277366638184,1.2401964664459229
1728747811997037300,321.1800373535156,8.96149730682373,-0.15562310814857483,1.742978811264038
1728747812007047200,321.1900471191406,8.576030731201172,0.395043283700943,1.7357962131500244
1728747812017026300,321.2000263671875,7.864952564239502,1.3479355573654175,1.5945383310317993
1728747812027005700,321.21000561523437,7.225700855255127,1.434126853942871,1.5298948287963867
1728747812036984800,321.21998486328124,6.787561893463135,1.1803414821624756,1.7860745191574097
1728747812046994700,321.22999462890624,6.720524311065674,0.8403648138046265,2.451662540435791
1728747812057004500,321.24000463867185,7.280767440795898,1.2713210582733154,0.586579442024231
1728747812066983700,321.2499836425781,7.850587368011475,1.4891934394836426,0.7015010714530945
1728747812076963000,321.2599631347656,8.10437297821045,1.0558429956436157,0.40701428055763245
1728747812086942200,321.26994213867187,9.08838939666748,0.5889736413955688,-0.3734954595565796
1728747812096921300,321.27992138671874,10.309432983398438,0.7230489253997803,-1.1899182796478271
1728747812106931200,321.28993115234374,10.884040832519531,0.9457096457481384,-2.140416383743286
1728747812116910300,321.2999104003906,10.584765434265137,1.3000515699386597,-2.293645143508911
1728747812126889700,321.3098896484375,9.943120002746582,1.6831238269805908,-1.8411411046981812
1728747812136868900,321.31986889648437,9.947908401489258,2.2625205516815186,-1.8052281141281128
1728747812146878700,321.32987866210937,9.945513725280762,2.8993782997131348,-1.680729627609253
1728747812156827400,321.3398273925781,9.785101890563965,3.622427225112915,-1.5945383310317993
1728747812166837200,321.3498371582031,9.880870819091797,4.0964789390563965,-1.6400281190872192
1728747812176847000,321.3598471679687,9.734824180603027,3.88818359375,-1.6160861253738403
1728747812186826200,321.369826171875,9.255983352661133,3.3446998596191406,-1.3479355573654175
1728747812196805400,321.37980541992187,9.064447402954102,3.155557870864868,-1.1037269830703735
1728747812206784800,321.38978466796874,9.078812599182129,3.028665065765381,-1.0821791887283325
1728747812216764000,321.3997639160156,9.306262016296387,3.026270866394043,-1.6400281190872192
1728747812226773800,321.4097736816406,9.442731857299805,3.184288263320923,-1.7166426181793213
1728747812236753000,321.4197529296875,9.402029991149902,3.246537446975708,-1.3120225667953491
1728747812246762800,321.4297626953125,9.804255485534668,3.337517261505127,-1.158793568611145
1728747812256772600,321.4397727050781,9.983820915222168,3.552995204925537,-1.2042834758758545
1728747812266782200,321.4497822265625,9.785101890563965,3.801992416381836,-1.3024457693099976
1728747812276761600,321.45976171875,9.861717224121094,3.5936968326568604,-1.1300631761550903
1728747812286771200,321.46977124023437,10.122684478759766,3.0573954582214355,-0.8858546018600464
1728747812296750600,321.47975048828124,9.959878921508789,2.8850131034851074,-0.7637503147125244
1728747812306760200,321.48976025390624,9.964667320251465,2.9520506858825684,-1.1085153818130493
1728747812316739600,321.4997395019531,9.442731857299805,2.873042106628418,-1.3048399686813354
1728747812326780000,321.50977978515624,8.647856712341309,2.8107926845550537,-1.1563993692398071
1728747812336759000,321.5197590332031,8.396465301513672,2.4444799423217773,-1.0678139925003052
1728747812346769000,321.5297687988281,8.288725852966309,2.2194249629974365,-0.5434837937355042
1728747812356748000,321.539748046875,8.992621421813965,2.5306711196899414,-0.7374141216278076
1728747812366758000,321.5497578125,9.150638580322266,2.580949544906616,-0.7781155705451965
1728747812376737000,321.55973706054687,9.885659217834473,2.889801502227783,-1.170764684677124
1728747812386716400,321.56971630859374,10.316615104675293,2.8874073028564453,-1.479616641998291
1728747812396695600,321.5796955566406,10.031704902648926,2.7006595134735107,-1.7693150043487549
1728747812406675000,321.5896750488281,9.66539192199707,2.695871114730835,-2.293645143508911
1728747812416654000,321.59965405273437,9.366117477416992,2.808398485183716,-2.4851813316345215
1728747812426633500,321.60963354492185,9.05247688293457,3.004723072052002,-2.449268341064453
1728747812436551700,321.6195517578125,9.224859237670898,2.983175277709961,-2.5665841102600098
1728747812446561300,321.62956127929687,9.651026725769043,2.762908697128296,-2.762908697128296
1728747812456571100,321.63957104492187,10.134655952453613,3.1100680828094482,-2.75812029838562
1728747812466550300,321.64955029296874,10.280701637268066,3.507505416870117,-2.4205379486083984
1728747812476529700,321.6595297851562,10.735600471496582,3.8091750144958496,-2.9328970909118652
1728747812486508800,321.6695087890625,10.65898609161377,3.552995204925537,-2.8634653091430664
1728747812496488200,321.67948828125,10.019734382629395,3.313575267791748,-2.279279947280884
1728747812506467300,321.68946728515624,9.821015357971191,3.5649664402008057,-2.099714994430542
1728747812516446700,321.6994467773437,9.84495735168457,3.7469255924224854,-2.054224967956543
1728747812526456300,321.7094562988281,9.804255485534668,3.5003228187561035,-2.006340980529785
1728747812536466200,321.7194660644531,9.751583099365234,3.1938650608062744,-2.27209734916687
1728747812546475800,321.7294758300781,10.345345497131348,2.9305028915405273,-2.7988216876983643
1728747812556455200,321.739455078125,10.326191902160645,2.604891538619995,-3.2082302570343018
1728747812566465000,321.7494650878906,10.187328338623047,2.8203697204589844,-3.2345664501190186
1728747812576444200,321.75944409179687,10.335768699645996,2.7437551021575928,-3.1004912853240967
1728747812586423300,321.76942333984374,10.433931350708008,2.5019407272338867,-2.9161376953125
1728747812596341500,321.77934155273437,10.417171478271484,2.542642116546631,-3.0597896575927734
1728747812606321000,321.78932080078124,9.964667320251465,2.7676970958709717,-3.0310592651367188
1728747812616269600,321.79926953125,9.962273597717285,2.7724854946136475,-2.964021682739258
1728747812626279400,321.8092795410156,9.399636268615723,2.5234885215759277,-2.8155810832977295
1728747812636289000,321.8192890625,8.937555313110352,2.205059766769409,-2.655169725418091
1728747812646268400,321.82926831054687,8.224082946777344,2.1571757793426514,-2.542642116546631
1728747812656247600,321.83924755859374,8.106766700744629,2.382230758666992,-2.518700122833252
1728747812666227000,321.8492270507812,7.654263019561768,2.346317768096924,-2.410961151123047
1728747812676206000,321.8592060546875,7.273584842681885,2.3918075561523438,-2.1930887699127197
1728747812686216000,321.8692158203125,7.189787864685059,2.300827741622925,-2.2840683460235596
1728747812696225500,321.8792255859375,7.465120792388916,2.2864625453948975,-2.75812029838562
1728747812706205000,321.88920483398437,7.4986395835876465,2.5115175247192383,-2.9472622871398926
1728747812716184000,321.89918408203124,7.47230339050293,2.7078421115875244,-2.363077163696289
1728747812726194000,321.90919384765624,7.036558628082275,2.671929121017456,-2.22660756111145
1728747812736203800,321.91920385742185,7.309497833251953,2.8874073028564453,-2.4229321479797363
1728747812746213400,321.92921337890624,7.433996200561523,3.1938650608062744,-2.5258827209472656
1728747812756131600,321.93913159179687,7.565677165985107,3.375824451446533,-2.4899697303771973
1728747812766172000,321.949171875,7.773972988128662,3.6966474056243896,-2.456450939178467
1728747812776151300,321.9591513671875,8.26239013671875,4.110844135284424,-2.1571757793426514
1728747812786130400,321.96913037109374,7.924807548522949,4.225766181945801,-1.9584569931030273
1728747812796109600,321.9791096191406,7.953537940979004,4.371812343597412,-2.2888567447662354
1728747812806089000,321.9890888671875,7.659051418304443,4.333505153656006,-2.2816741466522217
1728747812816037600,321.99903759765624,7.311892032623291,4.242525577545166,-2.1164743900299072
1728747812826047500,322.00904760742185,7.2113356590271,4.242525577545166,-2.2146365642547607
1728747812836057000,322.01905712890624,7.268796443939209,4.410119533538818,-2.516305923461914
1728747812846067000,322.02906689453124,7.206547260284424,4.4532151222229,-2.7269957065582275
1728747812856046000,322.0390461425781,7.1251444816589355,4.37420654296875,-2.537853717803955
1728747812866025500,322.049025390625,7.096413612365723,4.113238334655762,-2.387019157409668
1728747812876004600,322.05900463867187,7.376535415649414,3.907337188720703,-1.965639591217041
1728747812885984000,322.06898388671874,6.92881965637207,3.971980571746826,-1.3934253454208374
1728747812895963100,322.0789631347656,7.953537940979004,4.120420932769775,-2.0853497982025146
1728747812905942500,322.0889426269531,7.910442352294922,3.5027170181274414,-2.006340980529785
1728747812915860700,322.0988608398437,8.69095230102539,3.5625722408294678,-2.341529369354248
1728747812925870300,322.1088703613281,9.205705642700195,3.5960910320281982,-2.6431987285614014
1728747812935880200,322.1188801269531,9.442731857299805,3.5218706130981445,-2.650381326675415
1728747812945890000,322.1288901367187,9.892841339111328,3.665522813796997,-2.920926094055176
1728747812955899600,322.1388996582031,10.254365921020508,3.713406801223755,-3.1914708614349365
1728747812965879000,322.1488791503906,10.304644584655762,3.713406801223755,-3.4356794357299805
1728747812975858200,322.15885815429687,10.424354553222656,3.9600095748901367,-3.529053211212158
1728747812985868000,322.16886791992187,10.177751541137695,4.37420654296875,-3.5697548389434814
1728747812995877600,322.17887768554687,9.651026725769043,4.666299343109131,-3.272873640060425
1728747813005857000,322.18885693359374,9.782708168029785,4.225766181945801,-3.047818660736084
1728747813015836200,322.1988361816406,10.668562889099121,3.3925838470458984,-2.96162748336792
1728747813025846000,322.2088459472656,11.571176528930664,2.935291290283203,-2.889801502227783
1728747813035856000,322.2188559570312,12.24394702911377,2.719813108444214,-3.160346269607544
1728747813045865500,322.2288654785156,12.368446350097656,2.7269957065582275,-3.2130186557769775
1728747813055844900,322.2388449707031,11.461043357849121,3.07415509223938,-2.827552318572998
1728747813065824000,322.24882397460937,10.232817649841309,3.3686418533325195,-2.4444799423217773
1728747813075772700,322.2587727050781,9.411606788635254,3.28963303565979,-2.0661959648132324
1728747813085752000,322.268751953125,9.284713745117188,2.7485435009002686,-1.5490485429763794
1728747813095731200,322.27873120117187,9.445125579833984,2.557007312774658,-1.3048399686813354
1728747813105741000,322.28874096679687,10.010157585144043,3.1699230670928955,-1.5682021379470825
1728747813115689700,322.2986896972656,10.031704902648926,4.094084739685059,-1.6089035272598267
1728747813125699600,322.3086994628906,10.06043529510498,4.304774761199951,-1.6400281190872192
1728747813135709200,322.3187092285156,9.888052940368652,4.0749311447143555,-1.4532804489135742
1728747813145719000,322.3287189941406,9.643844604492188,3.955221176147461,-1.0223240852355957
1728747813155729000,322.3387290039062,9.658209800720215,3.754108190536499,-1.0534487962722778
1728747813165738500,322.3487385253906,9.48343276977539,3.7421371936798096,-1.278503656387329
1728747813175718000,322.3587177734375,9.399636268615723,3.687070608139038,-1.5729905366897583
1728747813185697000,322.36869702148437,9.430760383605957,3.5218706130981445,-1.6376339197158813
1728747813195645700,322.3786457519531,8.621520042419434,3.689464807510376,-1.7262194156646729
1728747813205655600,322.3886555175781,8.604761123657227,4.2951979637146,-2.169146776199341
1728747813215665400,322.3986655273437,7.857769966125488,4.458003520965576,-2.542642116546631
1728747813225675000,322.4086750488281,7.594407558441162,4.218583583831787,-2.2457611560821533
1728747813235624000,322.4186240234375,7.29034423828125,4.086902141571045,-2.0661959648132324
1728747813245603000,322.42860302734374,7.489062786102295,3.931279182434082,-2.207453966140747
1728747813255582200,322.4385822753906,7.7643961906433105,3.9025487899780273,-2.1930887699127197
1728747813265561600,322.4485615234375,8.056488990783691,3.9863457679748535,-2.0638017654418945
1728747813275540700,322.45854077148437,8.147468566894531,4.041412353515625,-1.9081788063049316
1728747813285520100,322.46852001953124,8.362946510314941,4.089296340942383,-1.8962076902389526
1728747813295499300,322.4784992675781,8.425195693969727,4.110844135284424,-2.03507137298584
1728747813305539600,322.48853955078124,8.33182144165039,4.1874589920043945,-1.9704279899597168
1728747813315519000,322.4985190429687,8.236053466796875,4.022258758544922,-1.7381904125213623
1728747813325498000,322.508498046875,8.109161376953125,3.780444383621216,-1.6065093278884888
1728747813335477200,322.51847729492187,8.13789176940918,3.708618402481079,-1.5418659448623657
1728747813345487000,322.52848706054687,7.970297336578369,3.825934410095215,-1.5418659448623657
1728747813355497000,322.5384970703125,7.797914981842041,3.9432501792907715,-1.3982137441635132
1728747813365506600,322.54850659179687,7.680599212646484,4.034229755401611,-1.2330138683319092
1728747813375486000,322.55848583984374,7.5848307609558105,4.067748546600342,-0.9888052940368652
1728747813385465000,322.5684650878906,7.778761386871338,4.01268196105957,-0.8571242094039917
1728747813395413800,322.57841381835937,7.501033782958984,3.845088005065918,-0.5913678407669067
1728747813405423600,322.58842358398437,7.395689010620117,3.890577793121338,-0.5506663918495178
1728747813415403000,322.59840307617185,7.486668586730957,4.390965938568115,-0.9959878921508789
1728747813425382100,322.6083820800781,7.457938194274902,5.011064052581787,-1.4413094520568848
1728747813435361300,322.618361328125,7.46033239364624,5.106832027435303,-1.37906014919281
1728747813445371100,322.62837109375,7.469909191131592,5.097255229949951,-1.2186486721038818
1728747813455381000,322.6383811035156,7.5632829666137695,5.43723201751709,-1.2042834758758545
1728747813465390600,322.648390625,7.6111674308776855,5.856217384338379,-1.0965443849563599
1728747813475400400,322.658400390625,7.587224960327148,6.033388137817383,-0.9241618514060974
1728747813485379600,322.66837963867187,8.08043098449707,6.167463779449463,-0.9457096457481384
1728747813495359000,322.67835888671874,8.35336971282959,6.224924564361572,-1.0462661981582642
1728747813505368800,322.68836889648435,8.422801971435547,6.210559368133545,-1.1516109704971313
1728747813515378400,322.69837841796874,8.834604263305664,5.815515995025635,-1.5131354331970215
1728747813525388300,322.70838818359374,9.093177795410156,5.34625244140625,-1.6328455209732056
1728747813535367400,322.7183674316406,9.129091262817383,4.778826713562012,-1.53707754611969
1728747813545346800,322.7283469238281,9.198522567749023,4.611232280731201,-1.2737152576446533
1728747813555265000,322.7382651367187,9.437943458557129,4.764461517333984,-1.170764684677124
1728747813565274600,322.7482746582031,9.873687744140625,5.07570743560791,-1.137245774269104
1728747813575284500,322.7582844238281,10.316615104675293,5.145139217376709,-1.1276689767837524
1728747813585263600,322.768263671875,10.879252433776855,5.212177276611328,-1.1204863786697388
1728747813595243000,322.77824291992187,11.657367706298828,5.2480902671813965,-1.2042834758758545
1728747813605222100,322.78822216796874,12.057199478149414,5.197812080383301,-1.259350061416626
1728747813615201500,322.7982014160156,11.889605522155762,4.944026470184326,-1.314416766166687
1728747813625211100,322.8082111816406,11.583148002624512,4.838681697845459,-1.314416766166687
1728747813635190500,322.8181904296875,11.111490249633789,4.8051629066467285,-1.0893617868423462
1728747813645169700,322.82816967773437,10.60152530670166,4.661510944366455,-0.9002198576927185
1728747813655149000,322.83814916992185,10.101137161254883,4.776432514190674,-1.0462661981582642
1728747813665128200,322.8481281738281,9.998186111450195,4.987122058868408,-1.577778935432434
1728747813675107600,322.8581076660156,9.974244117736816,5.442020416259766,-1.7549498081207275
1728747813685117200,322.8681171875,9.421183586120605,5.8657941818237305,-1.659181833267212
1728747813695127000,322.878126953125,9.042900085449219,6.095637321472168,-1.5897499322891235
1728747813705137000,322.8881369628906,9.038111686706543,6.011840343475342,-1.9536685943603516
1728747813715055000,322.8980551757812,8.822632789611816,6.117185115814209,-1.9800047874450684
1728747813725064700,322.9080646972656,8.607154846191406,6.1267619132995605,-1.7884687185287476
1728747813735074600,322.9180744628906,8.4108304977417,5.832275390625,-1.6424223184585571
1728747813745084400,322.9280844726562,8.133103370666504,5.8203043937683105,-1.4939818382263184
1728747813755094000,322.9380939941406,8.123526573181152,5.992686748504639,-1.3311761617660522
1728747813765134300,322.94813427734374,7.905653953552246,5.96874475479126,-1.4173674583435059
1728747813775113500,322.9581135253906,7.841010570526123,5.813121795654297,-1.6089035272598267
1728747813785123300,322.9681232910156,7.903259754180908,5.717353820800781,-1.778891921043396
1728747813795102700,322.9781027832031,7.716512203216553,5.729324817657471,-1.482010841369629
1728747813805081900,322.98808178710937,7.259219646453857,5.633556365966797,-1.1276689767837524
1728747813815061000,322.99806103515624,6.885724067687988,5.365406036376953,-1.1252747774124146
1728747813825070800,323.00807080078124,6.710947513580322,5.078101634979248,-1.115697979927063
1728747813835080700,323.01808081054685,6.2201361656188965,4.903325080871582,-0.9217676520347595
1728747813845090300,323.02809033203124,5.679046630859375,4.920084476470947,-0.5434837937355042
1728747813855069700,323.0380695800781,5.30076265335083,5.020640850067139,-0.3256114423274994
1728747813865048800,323.048048828125,5.274426460266113,5.2049946784973145,-0.33518823981285095
1728747813874967000,323.0579670410156,5.394136428833008,5.504269599914551,-0.5315127968788147
1728747813884946400,323.0679465332031,5.363011837005615,5.714959621429443,-0.47644615173339844
1728747813894925600,323.07792553710937,5.173870086669922,5.980715751647949,-0.3711012601852417
1728747813904905000,323.08790502929685,5.104437828063965,6.36378812789917,-0.181959331035614
1728747813914884000,323.0978840332031,4.99669885635376,6.540958881378174,-0.05267243832349777
1728747813924863200,323.10786328125,4.683058738708496,6.191405773162842,-0.1173158809542656
1728747813934842600,323.11784252929687,4.527435302734375,5.889736175537109,-0.16998831927776337
1728747813944821800,323.12782177734374,4.639962673187256,5.932831764221191,-0.24181437492370605
1728747813954801200,323.1378012695312,4.888959884643555,6.236895561218262,-0.36152446269989014
1728747813964810800,323.1478107910156,5.085284233093262,6.619967937469482,-0.6009446382522583
1728747813974820600,323.1578205566406,5.1116204261779785,7.043741226196289,-0.8092401623725891
1728747813984830500,323.1678305664062,5.540182590484619,6.971915245056152,-0.5554547905921936
1728747813994809600,323.1778095703125,5.906495571136475,6.801927089691162,-0.11971008777618408
1728747814004789000,323.1877890625,5.963956356048584,7.048529624938965,-0.3734954595565796
1728747814014768000,323.19776806640624,6.629544734954834,8.123526573181152,-0.6607996821403503
1728747814024747300,323.2077473144531,6.04775333404541,8.923190116882324,-0.31124621629714966
1728747814034696200,323.2176962890625,5.631162166595459,8.729259490966797,-0.3687070608139038
1728747814044705800,323.22770581054687,6.320692539215088,7.965508937835693,-0.7398083209991455
1728747814054685200,323.23768530273435,6.828263282775879,7.47230339050293,-1.0103530883789062
1728747814064664300,323.2476643066406,7.029376029968262,7.7883381843566895,-0.9409212470054626
1728747814074643700,323.2576437988281,6.993463039398193,8.468291282653809,-0.9385270476341248
1728747814084653300,323.2676533203125,7.60637903213501,9.01895809173584,-1.113303780555725
1728747814094663200,323.2776630859375,7.65186882019043,9.385271072387695,-1.4460978507995605
1728747814104673000,323.2876730957031,7.65186882019043,9.521739959716797,-1.316810965538025
1728747814114652200,323.29765209960937,7.1921820640563965,9.332598686218262,-0.7709329724311829
1728747814124631300,323.30763134765624,7.16584587097168,8.760383605957031,-0.33039984107017517
1728747814134610700,323.3176105957031,6.971915245056152,8.492233276367188,-0.4884171485900879
1728747814144620500,323.3276206054687,7.378929615020752,8.834604263305664,-0.9409212470054626
1728747814154599700,323.337599609375,8.202534675598145,9.172186851501465,-1.3072341680526733
1728747814164578800,323.34757885742187,8.760383605957031,9.406818389892578,-1.4700398445129395
1728747814174558200,323.35755810546874,9.016563415527344,9.588777542114258,-1.4628572463989258
1728747814184537300,323.3675373535156,9.124302864074707,9.576807022094727,-1.4221558570861816
1728747814194486300,323.377486328125,9.009381294250488,9.186552047729492,-1.3407529592514038
1728747814204465400,323.38746533203124,8.925583839416504,8.667010307312012,-1.1348515748977661
1728747814214444500,323.3974445800781,8.765172004699707,8.190564155578613,-0.7445967197418213
1728747814224454400,323.4074543457031,8.458714485168457,7.864952564239502,-0.22266076505184174
1728747814234464300,323.4174643554687,7.474697589874268,7.687781810760498,-0.17717093229293823
1728747814244443400,323.427443359375,6.847416877746582,7.4986395835876465,0.05985504388809204
1728747814254422800,323.4374228515625,6.536170482635498,7.180211067199707,0.2561795711517334
1728747814264402000,323.44740185546874,6.354211330413818,6.868964672088623,0.23702596127986908
1728747814274381000,323.4573811035156,6.426037311553955,6.672640323638916,-0.10534487664699554
1728747814284360400,323.4673603515625,6.682217121124268,6.708553314208984,-0.21787235140800476
1728747814294339600,323.47733959960937,6.830657482147217,6.777985095977783,0.08619125932455063
1728747814304319000,323.48731909179685,6.720524311065674,6.698976516723633,0.23702596127986908
1728747814314298000,323.4972980957031,6.873753070831299,6.567295074462891,0.07182604819536209
1728747814324308000,323.5073078613281,6.919242858886719,6.598419666290283,0.2561795711517334
1728747814334317600,323.5173176269531,6.964732646942139,6.7492547035217285,0.5578489899635315
1728747814344327400,323.5273273925781,6.756437301635742,6.701370716094971,0.49799394607543945
1728747814354276000,323.53727612304687,6.572083473205566,6.617573261260986,0.40940847992897034
1728747814364286000,323.54728588867187,6.268020153045654,6.576871871948242,0.17238251864910126
1728747814374265000,323.55726513671874,5.8203043937683105,6.452373504638672,0.09816227108240128
1728747814384244500,323.5672443847656,5.468356609344482,6.217741966247559,0.15801730751991272
1728747814394223600,323.5772236328125,5.5545477867126465,6.042964935302734,0.181959331035614
1728747814404203000,323.587203125,5.032611846923828,5.947196960449219,0.3064578175544739
1728747814414182100,323.59718212890624,5.092466831207275,5.702988624572754,0.13407529890537262
1728747814424192000,323.60719189453124,3.7277719974517822,3.9264907836914062,-0.730231523513794
1728747814434201600,323.61720166015624,6.517016887664795,5.446808815002441,0.4405331015586853
1728747814444181000,323.6271809082031,5.492298603057861,6.914454460144043,0.1149216815829277
1728747814454160100,323.63716015625,5.171475887298584,7.285555839538574,-0.5554547905921936
1728747814464170000,323.647169921875,5.461174011230469,6.780379295349121,-0.7805097699165344
1728747814474179800,323.6571799316406,5.60722017288208,6.358999729156494,-0.5841852426528931
1728747814484159000,323.66715893554687,5.537788391113281,6.248866558074951,-0.42616790533065796
1728747814494168800,323.6771689453125,6.222530364990234,6.761225700378418,-0.026336219161748886
1728747814504148000,323.68714794921874,5.499481201171875,6.224924564361572,-1.091755986213684
1728747814514066200,323.69706616210937,5.7341132164001465,6.698976516723633,-0.4141969084739685
1728747814524106500,323.7071064453125,6.282385349273682,6.596025466918945,-0.8906430602073669
1728747814534085600,323.71708569335937,1.8291701078414917,6.785167694091797,-0.7493851184844971
1728747814544065000,323.72706494140624,3.6727054119110107,9.01895809173584,0
1728747814554044200,323.7370441894531,6.588842868804932,7.613561630249023,-0.35913026332855225
1728747814564054000,323.7470539550781,6.275202751159668,6.7708024978637695,-0.5506663918495178
1728747814574033200,323.757033203125,6.007051944732666,6.564900875091553,-0.3519476354122162
1728747814584043000,323.76704296875,7.163451671600342,6.751648902893066,-0.8978256583213806
1728747814594052900,323.7770529785156,7.484274387359619,7.103596210479736,-0.727837324142456
1728747814604032000,323.78703198242187,6.557718276977539,6.768408298492432,-0.8164227604866028
1728747814614011400,323.79701147460935,6.268020153045654,6.8162922859191895,-0.8068459630012512
1728747814623990500,323.8069904785156,6.45476770401001,6.694188117980957,-1.2401964664459229
1728747814633969700,323.8169697265625,6.8593878746032715,6.610390663146973,-1.4221558570861816
1728747814643949000,323.82694897460937,7.1251444816589355,6.514622688293457,-1.0295066833496094
1728747814653928200,323.83692822265624,7.781155586242676,6.782773494720459,-0.8643068075180054
1728747814663907600,323.8469074707031,7.7643961906433105,7.285555839538574,-0.5530605912208557
1728747814673856300,323.85685620117187,7.927201747894287,7.110779285430908,-0.6967126727104187
1728747814683835400,323.86683544921874,8.38688850402832,7.16584587097168,-1.0319008827209473
1728747814693814800,323.8768146972656,8.494627952575684,7.292738437652588,-1.0797849893569946
1728747814703824600,323.8868247070312,8.085219383239746,6.9240312576293945,-2.0398597717285156
1728747814713834200,323.8968342285156,8.300697326660156,7.706935405731201,-2.5737667083740234
1728747814723844000,323.9068439941406,8.841787338256836,7.747636795043945,-1.9177556037902832
1728747814733823200,323.9168232421875,9.44991397857666,6.907271862030029,-1.843535304069519
1728747814743802600,323.926802734375,10.639832496643066,6.1267619132995605,-2.0159177780151367
1728747814753781800,323.93678173828124,11.676521301269531,5.772420406341553,-2.406172752380371
1728747814763791600,323.94679150390624,11.817779541015625,6.251260757446289,-2.983175277709961
1728747814773801200,323.95680126953124,10.125079154968262,7.074865818023682,-3.6559460163116455
1728747814783780600,323.9667805175781,8.939949035644531,6.976703643798828,-3.8498764038085938
1728747814793759700,323.976759765625,9.394847869873047,6.481103897094727,-3.050212860107422
1728747814803739100,323.9867392578125,8.875306129455566,6.320692539215088,-2.5330653190612793
1728747814813718300,323.99671826171874,8.391676902770996,6.078877925872803,-2.607285737991333
1728747814823728000,324.00672802734374,8.073247909545898,5.87776517868042,-2.7509377002716064
1728747814833646300,324.01664624023437,8.097189903259277,5.880159378051758,-2.8203697204589844
1728747814843625500,324.02662548828124,8.233659744262695,5.829881191253662,-2.738966703414917
1728747814853574400,324.0365744628906,8.13789176940918,5.659893035888672,-2.492363929748535
1728747814863584000,324.046583984375,7.948749542236328,5.456385612487793,-2.3247697353363037
1728747814873593900,324.05659375,7.927201747894287,5.492298603057861,-2.279279947280884
1728747814883603500,324.066603515625,7.769184589385986,5.643133640289307,-2.2601263523101807
1728747814893582800,324.07658276367187,7.402871608734131,5.870582580566406,-2.298433542251587
1728747814903562000,324.08656201171874,6.8378400802612305,6.143521785736084,-2.477998733520508
1728747814913541400,324.0965412597656,6.399701118469238,6.481103897094727,-2.3702597618103027
1728747814923520500,324.1065205078125,5.947196960449219,6.720524311065674,-1.9704279899597168
1728747814933500000,324.1165,5.604825973510742,6.67982292175293,-1.7836803197860718
1728747814943479000,324.12647900390624,5.3342814445495605,6.423643112182617,-1.4101848602294922
1728747814953458400,324.1364584960937,5.386953830718994,6.1267619132995605,-1.3024457693099976
1728747814963468000,324.1464680175781,5.837063789367676,6.210559368133545,-1.2952631711959839
1728747814973447400,324.1564475097656,5.849034786224365,6.471527099609375,-1.2210428714752197
1728747814983426600,324.16642651367187,5.995080947875977,6.62236213684082,-1.048660397529602
1728747814993375200,324.1763752441406,6.138733386993408,6.325480937957764,-1.0989385843276978
1728747815003385000,324.1863850097656,6.550535678863525,6.007051944732666,-1.556231141090393
1728747815013364200,324.1963642578125,6.665457725524902,6.1267619132995605,-1.922544002532959
1728747815023343600,324.20634350585937,6.538564682006836,6.358999729156494,-2.075772762298584
1728747815033322800,324.21632275390624,6.794744491577148,6.718130111694336,-2.011129379272461
1728747815043332600,324.22633251953124,6.756437301635742,6.955155849456787,-2.051830768585205
1728747815053311700,324.2363117675781,6.524199485778809,6.947973251342773,-1.8722656965255737
1728747815063291100,324.246291015625,6.404489517211914,6.763619899749756,-1.5059528350830078
1728747815073270300,324.25627026367187,6.691793918609619,6.775590896606445,-1.0678139925003052
1728747815083249700,324.26624975585935,6.866570472717285,6.907271862030029,-0.9074024558067322
1728747815093228800,324.2762287597656,6.739677906036377,7.005434036254883,-1.0007762908935547
1728747815103238700,324.2862387695312,7.026981830596924,7.043741226196289,-1.161187767982483
1728747815113217800,324.2962177734375,7.129932880401611,6.89530086517334,-1.4652514457702637
1728747815123258000,324.3062580566406,6.72531270980835,6.957550048828125,-1.6400281190872192
1728747815133237200,324.3162373046875,6.107608318328857,7.01979923248291,-1.4844050407409668
1728747815143216600,324.32621655273437,6.1770405769348145,6.847416877746582,-1.2449848651885986
1728747815153134800,324.336134765625,6.809109687805176,6.694188117980957,-1.048660397529602
1728747815163144700,324.3461447753906,7.453149795532227,6.746860504150391,-0.7541735172271729
1728747815173154300,324.356154296875,7.795520782470703,6.952761650085449,-0.5219359993934631
1728747815183164200,324.3661640625,8.159439086914062,6.943184852600098,-0.6799532771110535
1728747815193112800,324.37611279296874,8.724471092224121,6.641515731811523,-0.8906430602073669
1728747815203122700,324.38612280273435,9.009381294250488,6.291962146759033,-1.0534487962722778
1728747815213132300,324.39613232421874,8.954314231872559,6.009446144104004,-1.2042834758758545
1728747815223111700,324.4061115722656,8.856152534484863,5.8657941818237305,-1.158793568611145
1728747815233090800,324.4160908203125,8.609549522399902,5.731719017028809,-1.072602391242981
1728747815243070200,324.4260703125,8.437167167663574,5.638344764709473,-0.8667010068893433
1728747815253049300,324.43604931640624,8.374917984008789,5.485116004943848,-0.5937620401382446
1728747815263028700,324.4460288085937,8.406042098999023,5.355829238891602,-0.304063618183136
1728747815272990500,324.4559904785156,8.437167167663574,5.4875102043151855,-0.21547815203666687
1728747815282969600,324.4659694824219,8.470685958862305,5.7987565994262695,-0.26096799969673157
1728747815292949000,324.47594897460937,8.439560890197754,6.050147533416748,-0.2849099934101105
1728747815302958600,324.48595849609376,8.468291282653809,6.066906929016113,-0.5817909836769104
1728747815312938000,324.49593798828124,9.011775016784668,5.5545477867126465,-1.2186486721038818
1728747815322947600,324.50594750976563,9.217676162719727,5.542576789855957,-1.1779472827911377
1728747815332988000,324.51598779296876,9.744400978088379,5.509057998657227,-1.2018892765045166
1728747815342997800,324.52599780273437,10.163386344909668,5.398924827575684,-1.0845733880996704
1728747815353007600,324.53600756835937,10.232817649841309,5.406107425689697,-0.9050082564353943
1728747815363017200,324.54601733398437,10.014945983886719,5.612008571624756,-0.7110779285430908
1728747815372996600,324.55599658203124,9.677363395690918,5.949591159820557,-0.5195417404174805
1728747815382975700,324.5659758300781,9.172186851501465,6.04775333404541,-0.33279404044151306
1728747815392955000,324.5759548339844,8.44434928894043,5.9519853591918945,-0.13168109953403473
1728747815402964700,324.58596484375,7.694964408874512,6.129156112670898,0.10773907601833344
1728747815412974600,324.595974609375,7.103596210479736,6.174646377563477,0.004788403399288654
1728747815422984200,324.6059841308594,7.2137298583984375,5.978321552276611,-0.17238251864910126
1728747815432963600,324.61596362304687,7.532158374786377,5.793968200683594,-0.17956513166427612
1728747815442973200,324.62597314453126,7.99184513092041,5.468356609344482,-0.29209262132644653
1728747815452983000,324.63598315429687,9.093177795410156,5.571307182312012,-0.4596867263317108
1728747815462993000,324.64599291992187,8.53532886505127,6.2201361656188965,-0.13407529890537262
